PacketType,PayloadLen,DeviceID,Timestamp,PacketID,AccelX,AccelY,AccelZ,GyroX,GyroY,GyroZ,MagX,MagY,MagZ,Flags,Battery,CRC
2,24,3,7114,1,0,0,0,0,0,0,0,0,0,3,0,81
2,24,1,7115,1,0,0,0,0,0,0,0,0,0,3,0,181
2,24,2,7116,1,0,0,0,0,0,0,0,0,0,3,0,235
2,24,3,7120,2,0,0,0,0,0,0,0,0,0,3,0,18
2,24,2,7121,2,0,0,0,0,0,0,0,0,0,3,0,135
2,24,1,7122,2,0,0,0,0,0,0,0,0,0,3,0,63
2,24,3,7125,3,0,0,0,0,0,0,0,0,0,3,0,104
2,24,2,7127,3,0,0,0,0,0,0,0,0,0,3,0,52
2,24,1,7128,3,0,0,0,0,0,0,0,0,0,3,0,161
2,24,3,7131,4,0,0,0,0,0,0,0,0,0,3,0,196
2,24,2,7132,4,0,0,0,0,0,0,0,0,0,3,0,196
2,24,1,7133,4,0,0,0,0,0,0,0,0,0,3,0,15
2,24,3,7137,5,0,0,0,0,0,0,0,0,0,3,0,238
2,24,1,7138,5,0,0,0,0,0,0,0,0,0,3,0,121
2,24,2,7139,5,0,0,0,0,0,0,0,0,0,3,0,178
2,24,1,7144,6,0,0,0,0,0,0,0,0,0,3,0,171
2,24,3,7145,6,0,0,0,0,0,0,0,0,0,3,0,79
2,24,2,7146,6,0,0,0,0,0,0,0,0,0,3,0,169
2,24,3,7150,7,0,0,0,0,0,0,0,0,0,3,0,70
2,24,1,7151,7,0,0,0,0,0,0,0,0,0,3,0,162
2,24,2,7152,7,0,0,0,0,0,0,0,0,0,3,0,166
2,24,1,7156,8,0,0,0,0,0,0,0,0,0,3,0,244
2,24,2,7157,8,0,0,0,0,0,0,0,0,0,3,0,63
2,24,3,7158,8,0,0,0,0,0,0,0,0,0,3,0,217
2,24,3,7162,9,0,0,0,0,0,0,0,0,0,3,0,210
2,24,1,7163,9,0,0,0,0,0,0,0,0,0,3,0,54
2,24,2,7164,9,0,0,0,0,0,0,0,0,0,3,0,104
2,24,2,7168,10,0,0,0,0,0,0,0,0,0,3,0,255
2,24,3,7169,10,0,0,0,0,0,0,0,0,0,3,0,106
2,24,1,7170,10,0,0,0,0,0,0,0,0,0,3,0,253
2,24,3,7174,11,0,0,0,0,0,0,0,0,0,3,0,99
2,24,1,7175,11,0,0,0,0,0,0,0,0,0,3,0,135
2,24,2,7176,11,0,0,0,0,0,0,0,0,0,3,0,18
2,24,3,7180,12,0,0,0,0,0,0,0,0,0,3,0,41
2,24,2,7181,12,0,0,0,0,0,0,0,0,0,3,0,188
2,24,1,7185,12,0,0,0,0,0,0,0,0,0,3,0,113
2,24,3,7189,13,0,0,0,0,0,0,0,0,0,3,0,239
2,24,2,7190,13,0,0,0,0,0,0,0,0,0,3,0,9
2,24,1,7192,13,0,0,0,0,0,0,0,0,0,3,0,38
2,24,3,7196,14,0,0,0,0,0,0,0,0,0,3,0,244
2,24,2,7197,14,0,0,0,0,0,0,0,0,0,3,0,97
2,24,1,7198,14,0,0,0,0,0,0,0,0,0,3,0,217
2,24,2,7202,15,0,0,0,0,0,0,0,0,0,3,0,23
2,24,3,7203,15,0,0,0,0,0,0,0,0,0,3,0,130
2,24,1,7204,15,0,0,0,0,0,0,0,0,0,3,0,243
2,24,3,7209,16,0,0,0,0,0,0,0,0,0,3,0,145
2,24,1,7210,16,0,0,0,0,0,0,0,0,0,3,0,6
2,24,2,7211,16,0,0,0,0,0,0,0,0,0,3,0,205
2,24,1,7214,17,0,0,0,0,0,0,0,0,0,3,0,198
2,24,3,7215,17,0,0,0,0,0,0,0,0,0,3,0,34
2,24,2,7216,17,0,0,0,0,0,0,0,0,0,3,0,120
2,24,3,7220,18,0,0,0,0,0,0,0,0,0,3,0,219
2,24,1,7222,18,0,0,0,0,0,0,0,0,0,3,0,246
2,24,2,7223,18,0,0,0,0,0,0,0,0,0,3,0,61
2,24,2,7228,19,0,0,0,0,0,0,0,0,0,3,0,25
2,24,3,7229,19,0,0,0,0,0,0,0,0,0,3,0,140
2,24,1,7231,19,0,0,0,0,0,0,0,0,0,3,0,161
2,24,3,7234,20,0,0,0,0,0,0,0,0,0,3,0,100
2,24,1,7235,20,0,0,0,0,0,0,0,0,0,3,0,128
2,24,2,7236,20,0,0,0,0,0,0,0,0,0,3,0,222
2,24,2,7240,21,0,0,0,0,0,0,0,0,0,3,0,213
2,24,3,7241,21,0,0,0,0,0,0,0,0,0,3,0,64
2,24,1,7242,21,0,0,0,0,0,0,0,0,0,3,0,215
2,24,2,7246,22,0,0,0,0,0,0,0,0,0,3,0,42
2,24,3,7247,22,0,0,0,0,0,0,0,0,0,3,0,191
2,24,1,7251,22,0,0,0,0,0,0,0,0,0,3,0,93
2,24,1,7255,23,0,0,0,0,0,0,0,0,0,3,0,157
2,24,2,7256,23,0,0,0,0,0,0,0,0,0,3,0,8
2,24,3,7257,23,0,0,0,0,0,0,0,0,0,3,0,157
2,24,3,7260,24,0,0,0,0,0,0,0,0,0,3,0,4
2,24,2,7261,24,0,0,0,0,0,0,0,0,0,3,0,145
2,24,1,7262,24,0,0,0,0,0,0,0,0,0,3,0,41
2,24,3,7266,25,0,0,0,0,0,0,0,0,0,3,0,200
2,24,1,7267,25,0,0,0,0,0,0,0,0,0,3,0,44
2,24,2,7268,25,0,0,0,0,0,0,0,0,0,3,0,114
2,24,3,7272,26,0,0,0,0,0,0,0,0,0,3,0,26
2,24,1,7273,26,0,0,0,0,0,0,0,0,0,3,0,254
2,24,2,7274,26,0,0,0,0,0,0,0,0,0,3,0,70
2,24,1,7277,27,0,0,0,0,0,0,0,0,0,3,0,62
2,24,2,7278,27,0,0,0,0,0,0,0,0,0,3,0,134
2,24,3,7280,27,0,0,0,0,0,0,0,0,0,3,0,102
2,24,2,7284,28,0,0,0,0,0,0,0,0,0,3,0,93
2,24,1,7285,28,0,0,0,0,0,0,0,0,0,3,0,150
2,24,3,7286,28,0,0,0,0,0,0,0,0,0,3,0,1
2,24,3,7289,29,0,0,0,0,0,0,0,0,0,3,0,195
2,24,1,7290,29,0,0,0,0,0,0,0,0,0,3,0,84
2,24,2,7291,29,0,0,0,0,0,0,0,0,0,3,0,159
2,24,3,7296,30,0,0,0,0,0,0,0,0,0,3,0,178
2,24,2,7297,30,0,0,0,0,0,0,0,0,0,3,0,39
2,24,1,7298,30,0,0,0,0,0,0,0,0,0,3,0,159
2,24,2,7302,31,0,0,0,0,0,0,0,0,0,3,0,46
2,24,1,7303,31,0,0,0,0,0,0,0,0,0,3,0,229
2,24,3,7304,31,0,0,0,0,0,0,0,0,0,3,0,95
2,24,3,7308,32,0,0,0,0,0,0,0,0,0,3,0,206
2,24,2,7309,32,0,0,0,0,0,0,0,0,0,3,0,91
2,24,1,7312,32,0,0,0,0,0,0,0,0,0,3,0,44
2,24,3,7317,33,0,0,0,0,0,0,0,0,0,3,0,8
2,24,2,7320,33,0,0,0,0,0,0,0,0,0,3,0,176
2,24,1,7321,33,0,0,0,0,0,0,0,0,0,3,0,123
2,24,3,7331,34,0,0,0,0,0,0,0,0,0,3,0,67
2,24,1,7332,34,0,0,0,0,0,0,0,0,0,3,0,50
2,24,2,7333,34,0,0,0,0,0,0,0,0,0,3,0,249
2,24,3,7336,35,0,0,0,0,0,0,0,0,0,3,0,103
2,24,1,7337,35,0,0,0,0,0,0,0,0,0,3,0,131
2,24,2,7338,35,0,0,0,0,0,0,0,0,0,3,0,59
2,24,3,7342,36,0,0,0,0,0,0,0,0,0,3,0,0
2,24,1,7343,36,0,0,0,0,0,0,0,0,0,3,0,228
2,24,2,7344,36,0,0,0,0,0,0,0,0,0,3,0,224
2,24,2,7349,37,0,0,0,0,0,0,0,0,0,3,0,154
2,24,3,7350,37,0,0,0,0,0,0,0,0,0,3,0,124
2,24,1,7351,37,0,0,0,0,0,0,0,0,0,3,0,152
2,24,2,7354,38,0,0,0,0,0,0,0,0,0,3,0,20
2,24,3,7355,38,0,0,0,0,0,0,0,0,0,3,0,129
2,24,1,7356,38,0,0,0,0,0,0,0,0,0,3,0,240
2,24,2,7361,39,0,0,0,0,0,0,0,0,0,3,0,206
2,24,1,7362,39,0,0,0,0,0,0,0,0,0,3,0,118
2,24,3,7363,39,0,0,0,0,0,0,0,0,0,3,0,146
2,24,1,7367,40,0,0,0,0,0,0,0,0,0,3,0,239
2,24,2,7368,40,0,0,0,0,0,0,0,0,0,3,0,122
2,24,3,7369,40,0,0,0,0,0,0,0,0,0,3,0,239
2,24,3,7375,41,0,0,0,0,0,0,0,0,0,3,0,92
2,24,1,7376,41,0,0,0,0,0,0,0,0,0,3,0,119
2,24,2,7378,41,0,0,0,0,0,0,0,0,0,3,0,117
2,24,2,7382,42,0,0,0,0,0,0,0,0,0,3,0,249
2,24,3,7383,42,0,0,0,0,0,0,0,0,0,3,0,108
2,24,1,7384,42,0,0,0,0,0,0,0,0,0,3,0,214
2,24,2,7387,43,0,0,0,0,0,0,0,0,0,3,0,72
2,24,3,7388,43,0,0,0,0,0,0,0,0,0,3,0,72
2,24,1,7390,43,0,0,0,0,0,0,0,0,0,3,0,101
2,24,3,7393,44,0,0,0,0,0,0,0,0,0,3,0,153
2,24,1,7394,44,0,0,0,0,0,0,0,0,0,3,0,14
2,24,2,7395,44,0,0,0,0,0,0,0,0,0,3,0,197
2,24,1,7399,45,0,0,0,0,0,0,0,0,0,3,0,116
2,24,2,7400,45,0,0,0,0,0,0,0,0,0,3,0,225
2,24,3,7401,45,0,0,0,0,0,0,0,0,0,3,0,116
2,24,2,7406,46,0,0,0,0,0,0,0,0,0,3,0,30
2,24,3,7407,46,0,0,0,0,0,0,0,0,0,3,0,139
2,24,1,7409,46,0,0,0,0,0,0,0,0,0,3,0,26
2,24,2,7413,47,0,0,0,0,0,0,0,0,0,3,0,171
2,24,1,7414,47,0,0,0,0,0,0,0,0,0,3,0,19
2,24,3,7415,47,0,0,0,0,0,0,0,0,0,3,0,247
2,24,2,7419,48,0,0,0,0,0,0,0,0,0,3,0,94
2,24,3,7420,48,0,0,0,0,0,0,0,0,0,3,0,94
2,24,1,7421,48,0,0,0,0,0,0,0,0,0,3,0,186
2,24,1,7424,49,0,0,0,0,0,0,0,0,0,3,0,95
2,24,3,7425,49,0,0,0,0,0,0,0,0,0,3,0,187
2,24,2,7427,49,0,0,0,0,0,0,0,0,0,3,0,231
2,24,2,7433,50,0,0,0,0,0,0,0,0,0,3,0,53
2,24,3,7434,50,0,0,0,0,0,0,0,0,0,3,0,211
2,24,1,7436,50,0,0,0,0,0,0,0,0,0,3,0,24
2,24,2,7440,51,0,0,0,0,0,0,0,0,0,3,0,243
2,24,3,7441,51,0,0,0,0,0,0,0,0,0,3,0,102
2,24,1,7442,51,0,0,0,0,0,0,0,0,0,3,0,241
2,24,2,7446,52,0,0,0,0,0,0,0,0,0,3,0,148
2,24,3,7447,52,0,0,0,0,0,0,0,0,0,3,0,1
2,24,1,7448,52,0,0,0,0,0,0,0,0,0,3,0,187
2,24,3,7451,53,0,0,0,0,0,0,0,0,0,3,0,10
2,24,2,7452,53,0,0,0,0,0,0,0,0,0,3,0,10
2,24,1,7454,53,0,0,0,0,0,0,0,0,0,3,0,8
2,24,3,7457,54,0,0,0,0,0,0,0,0,0,3,0,108
2,24,1,7458,54,0,0,0,0,0,0,0,0,0,3,0,251
2,24,2,7459,54,0,0,0,0,0,0,0,0,0,3,0,48
2,24,3,7462,55,0,0,0,0,0,0,0,0,0,3,0,101
2,24,2,7463,55,0,0,0,0,0,0,0,0,0,3,0,240
2,24,1,7464,55,0,0,0,0,0,0,0,0,0,3,0,101
2,24,3,7467,56,0,0,0,0,0,0,0,0,0,3,0,55
2,24,1,7468,56,0,0,0,0,0,0,0,0,0,3,0,70
2,24,2,7470,56,0,0,0,0,0,0,0,0,0,3,0,68
2,24,1,7474,57,0,0,0,0,0,0,0,0,0,3,0,175
2,24,3,7477,57,0,0,0,0,0,0,0,0,0,3,0,222
2,24,2,7478,57,0,0,0,0,0,0,0,0,0,3,0,56
2,24,2,7481,58,0,0,0,0,0,0,0,0,0,3,0,182
2,24,3,7482,58,0,0,0,0,0,0,0,0,0,3,0,80
2,24,1,7483,58,0,0,0,0,0,0,0,0,0,3,0,180
2,24,3,7487,59,0,0,0,0,0,0,0,0,0,3,0,42
2,24,1,7488,59,0,0,0,0,0,0,0,0,0,3,0,110
2,24,2,7492,59,0,0,0,0,0,0,0,0,0,3,0,249
2,24,2,7495,60,0,0,0,0,0,0,0,0,0,3,0,194
2,24,3,7496,60,0,0,0,0,0,0,0,0,0,3,0,9
2,24,1,7497,60,0,0,0,0,0,0,0,0,0,3,0,237
2,24,2,7500,61,0,0,0,0,0,0,0,0,0,3,0,230
2,24,1,7501,61,0,0,0,0,0,0,0,0,0,3,0,45
2,24,3,7502,61,0,0,0,0,0,0,0,0,0,3,0,186
2,24,3,7507,62,0,0,0,0,0,0,0,0,0,3,0,214
2,24,2,7508,62,0,0,0,0,0,0,0,0,0,3,0,214
2,24,1,7512,62,0,0,0,0,0,0,0,0,0,3,0,138
2,24,3,7515,63,0,0,0,0,0,0,0,0,0,3,0,59
2,24,2,7516,63,0,0,0,0,0,0,0,0,0,3,0,59
2,24,1,7517,63,0,0,0,0,0,0,0,0,0,3,0,240
2,24,3,7521,64,0,0,0,0,0,0,0,0,0,3,0,255
2,24,2,7522,64,0,0,0,0,0,0,0,0,0,3,0,25
2,24,1,7524,64,0,0,0,0,0,0,0,0,0,3,0,253
2,24,1,7534,65,0,0,0,0,0,0,0,0,0,3,0,99
2,24,3,7536,65,0,0,0,0,0,0,0,0,0,3,0,242
2,24,2,7537,65,0,0,0,0,0,0,0,0,0,3,0,103
2,24,3,7541,66,0,0,0,0,0,0,0,0,0,3,0,196
2,24,2,7542,66,0,0,0,0,0,0,0,0,0,3,0,34
2,24,1,7543,66,0,0,0,0,0,0,0,0,0,3,0,233
2,24,2,7546,67,0,0,0,0,0,0,0,0,0,3,0,41
2,24,3,7547,67,0,0,0,0,0,0,0,0,0,3,0,188
2,24,1,7548,67,0,0,0,0,0,0,0,0,0,3,0,205
2,24,2,7553,68,0,0,0,0,0,0,0,0,0,3,0,179
2,24,3,7554,68,0,0,0,0,0,0,0,0,0,3,0,85
2,24,1,7555,68,0,0,0,0,0,0,0,0,0,3,0,177
2,24,2,7559,69,0,0,0,0,0,0,0,0,0,3,0,0
2,24,1,7560,69,0,0,0,0,0,0,0,0,0,3,0,149
2,24,3,7561,69,0,0,0,0,0,0,0,0,0,3,0,113
2,24,2,7566,70,0,0,0,0,0,0,0,0,0,3,0,27
2,24,3,7567,70,0,0,0,0,0,0,0,0,0,3,0,142
2,24,1,7568,70,0,0,0,0,0,0,0,0,0,3,0,165
2,24,1,7573,71,0,0,0,0,0,0,0,0,0,3,0,223
2,24,2,7574,71,0,0,0,0,0,0,0,0,0,3,0,103
2,24,3,7576,71,0,0,0,0,0,0,0,0,0,3,0,22
2,24,3,7580,72,0,0,0,0,0,0,0,0,0,3,0,53
2,24,1,7581,72,0,0,0,0,0,0,0,0,0,3,0,209
2,24,2,7582,72,0,0,0,0,0,0,0,0,0,3,0,105
2,24,1,7586,73,0,0,0,0,0,0,0,0,0,3,0,167
2,24,2,7587,73,0,0,0,0,0,0,0,0,0,3,0,108
2,24,3,7588,73,0,0,0,0,0,0,0,0,0,3,0,108
2,24,3,7592,74,0,0,0,0,0,0,0,0,0,3,0,43
2,24,2,7593,74,0,0,0,0,0,0,0,0,0,3,0,190
2,24,1,7595,74,0,0,0,0,0,0,0,0,0,3,0,188
2,24,2,7599,75,0,0,0,0,0,0,0,0,0,3,0,13
2,24,3,7600,75,0,0,0,0,0,0,0,0,0,3,0,87
2,24,1,7605,75,0,0,0,0,0,0,0,0,0,3,0,85
2,24,1,7609,76,0,0,0,0,0,0,0,0,0,3,0,138
2,24,2,7610,76,0,0,0,0,0,0,0,0,0,3,0,50
2,24,3,7613,76,0,0,0,0,0,0,0,0,0,3,0,50
2,24,3,7619,77,0,0,0,0,0,0,0,0,0,3,0,180
2,24,2,7620,77,0,0,0,0,0,0,0,0,0,3,0,180
2,24,1,7621,77,0,0,0,0,0,0,0,0,0,3,0,127
2,24,3,7625,78,0,0,0,0,0,0,0,0,0,3,0,102
2,24,1,7626,78,0,0,0,0,0,0,0,0,0,3,0,241
2,24,2,7628,78,0,0,0,0,0,0,0,0,0,3,0,21
2,24,2,7632,79,0,0,0,0,0,0,0,0,0,3,0,143
2,24,3,7633,79,0,0,0,0,0,0,0,0,0,3,0,26
2,24,1,7634,79,0,0,0,0,0,0,0,0,0,3,0,141
2,24,2,7637,80,0,0,0,0,0,0,0,0,0,3,0,120
2,24,3,7638,80,0,0,0,0,0,0,0,0,0,3,0,158
2,24,1,7642,80,0,0,0,0,0,0,0,0,0,3,0,237
2,24,3,7646,81,0,0,0,0,0,0,0,0,0,3,0,115
2,24,1,7648,81,0,0,0,0,0,0,0,0,0,3,0,199
2,24,2,7649,81,0,0,0,0,0,0,0,0,0,3,0,12
2,24,3,7652,82,0,0,0,0,0,0,0,0,0,3,0,21
2,24,1,7653,82,0,0,0,0,0,0,0,0,0,3,0,241
2,24,2,7655,82,0,0,0,0,0,0,0,0,0,3,0,243
2,24,2,7659,83,0,0,0,0,0,0,0,0,0,3,0,248
2,24,1,7661,83,0,0,0,0,0,0,0,0,0,3,0,28
2,24,3,7662,83,0,0,0,0,0,0,0,0,0,3,0,139
2,24,3,7665,84,0,0,0,0,0,0,0,0,0,3,0,12
2,24,2,7666,84,0,0,0,0,0,0,0,0,0,3,0,234
2,24,1,7668,84,0,0,0,0,0,0,0,0,0,3,0,14
2,24,2,7674,85,0,0,0,0,0,0,0,0,0,3,0,7
2,24,3,7675,85,0,0,0,0,0,0,0,0,0,3,0,146
2,24,1,7676,85,0,0,0,0,0,0,0,0,0,3,0,227
2,24,3,7680,86,0,0,0,0,0,0,0,0,0,3,0,210
2,24,2,7681,86,0,0,0,0,0,0,0,0,0,3,0,71
2,24,1,7682,86,0,0,0,0,0,0,0,0,0,3,0,255
2,24,3,7685,87,0,0,0,0,0,0,0,0,0,3,0,168
2,24,1,7686,87,0,0,0,0,0,0,0,0,0,3,0,63
2,24,2,7687,87,0,0,0,0,0,0,0,0,0,3,0,244
2,24,1,7690,88,0,0,0,0,0,0,0,0,0,3,0,215
2,24,3,7691,88,0,0,0,0,0,0,0,0,0,3,0,51
2,24,2,7692,88,0,0,0,0,0,0,0,0,0,3,0,51
2,24,3,7697,89,0,0,0,0,0,0,0,0,0,3,0,60
2,24,1,7699,89,0,0,0,0,0,0,0,0,0,3,0,17
2,24,2,7700,89,0,0,0,0,0,0,0,0,0,3,0,79
2,24,3,7703,90,0,0,0,0,0,0,0,0,0,3,0,195
2,24,2,7704,90,0,0,0,0,0,0,0,0,0,3,0,8
2,24,1,7705,90,0,0,0,0,0,0,0,0,0,3,0,195
2,24,2,7708,91,0,0,0,0,0,0,0,0,0,3,0,200
2,24,3,7710,91,0,0,0,0,0,0,0,0,0,3,0,148
2,24,1,7712,91,0,0,0,0,0,0,0,0,0,3,0,32
2,24,3,7715,92,0,0,0,0,0,0,0,0,0,3,0,69
2,24,2,7716,92,0,0,0,0,0,0,0,0,0,3,0,69
2,24,1,7718,92,0,0,0,0,0,0,0,0,0,3,0,71
2,24,1,7721,93,0,0,0,0,0,0,0,0,0,3,0,133
2,24,3,7722,93,0,0,0,0,0,0,0,0,0,3,0,18
2,24,2,7723,93,0,0,0,0,0,0,0,0,0,3,0,135
2,24,3,7727,94,0,0,0,0,0,0,0,0,0,3,0,36
2,24,2,7728,94,0,0,0,0,0,0,0,0,0,3,0,126
2,24,1,7729,94,0,0,0,0,0,0,0,0,0,3,0,181
2,24,3,7732,95,0,0,0,0,0,0,0,0,0,3,0,145
2,24,2,7733,95,0,0,0,0,0,0,0,0,0,3,0,4
2,24,1,7734,95,0,0,0,0,0,0,0,0,0,3,0,188
2,24,1,7738,96,0,0,0,0,0,0,0,0,0,3,0,230
2,24,3,7739,96,0,0,0,0,0,0,0,0,0,3,0,2
2,24,2,7740,96,0,0,0,0,0,0,0,0,0,3,0,2
2,24,2,7745,97,0,0,0,0,0,0,0,0,0,3,0,77
2,24,3,7747,97,0,0,0,0,0,0,0,0,0,3,0,17
2,24,1,7748,97,0,0,0,0,0,0,0,0,0,3,0,96
2,24,3,7752,98,0,0,0,0,0,0,0,0,0,3,0,121
2,24,2,7753,98,0,0,0,0,0,0,0,0,0,3,0,236
2,24,1,7754,98,0,0,0,0,0,0,0,0,0,3,0,84
2,24,1,7759,99,0,0,0,0,0,0,0,0,0,3,0,46
2,24,3,7761,99,0,0,0,0,0,0,0,0,0,3,0,191
2,24,2,7762,99,0,0,0,0,0,0,0,0,0,3,0,89
2,24,1,7765,100,0,0,0,0,0,0,0,0,0,3,0,245
2,24,3,7766,100,0,0,0,0,0,0,0,0,0,3,0,98
2,24,2,7767,100,0,0,0,0,0,0,0,0,0,3,0,247
2,24,1,7772,101,0,0,0,0,0,0,0,0,0,3,0,162
2,24,3,7773,101,0,0,0,0,0,0,0,0,0,3,0,70
2,24,2,7774,101,0,0,0,0,0,0,0,0,0,3,0,160
2,24,3,7777,102,0,0,0,0,0,0,0,0,0,3,0,181
2,24,2,7778,102,0,0,0,0,0,0,0,0,0,3,0,83
2,24,1,7779,102,0,0,0,0,0,0,0,0,0,3,0,152
2,24,3,7783,103,0,0,0,0,0,0,0,0,0,3,0,6
2,24,1,7784,103,0,0,0,0,0,0,0,0,0,3,0,188
2,24,2,7785,103,0,0,0,0,0,0,0,0,0,3,0,119
2,24,3,7789,104,0,0,0,0,0,0,0,0,0,3,0,123
2,24,1,7790,104,0,0,0,0,0,0,0,0,0,3,0,236
2,24,2,7791,104,0,0,0,0,0,0,0,0,0,3,0,39
2,24,2,7795,105,0,0,0,0,0,0,0,0,0,3,0,189
2,24,3,7796,105,0,0,0,0,0,0,0,0,0,3,0,189
2,24,1,7797,105,0,0,0,0,0,0,0,0,0,3,0,89
2,24,3,7801,106,0,0,0,0,0,0,0,0,0,3,0,64
2,24,2,7802,106,0,0,0,0,0,0,0,0,0,3,0,166
2,24,1,7803,106,0,0,0,0,0,0,0,0,0,3,0,109
2,24,3,7809,107,0,0,0,0,0,0,0,0,0,3,0,199
2,24,2,7810,107,0,0,0,0,0,0,0,0,0,3,0,33
2,24,1,7813,107,0,0,0,0,0,0,0,0,0,3,0,127
2,24,2,7817,108,0,0,0,0,0,0,0,0,0,3,0,209
2,24,1,7818,108,0,0,0,0,0,0,0,0,0,3,0,105
2,24,3,7819,108,0,0,0,0,0,0,0,0,0,3,0,141
2,24,3,7823,109,0,0,0,0,0,0,0,0,0,3,0,77
2,24,1,7824,109,0,0,0,0,0,0,0,0,0,3,0,102
2,24,2,7825,109,0,0,0,0,0,0,0,0,0,3,0,173
2,24,1,7829,110,0,0,0,0,0,0,0,0,0,3,0,80
2,24,2,7830,110,0,0,0,0,0,0,0,0,0,3,0,232
2,24,3,7831,110,0,0,0,0,0,0,0,0,0,3,0,125
2,24,3,7835,111,0,0,0,0,0,0,0,0,0,3,0,118
2,24,1,7836,111,0,0,0,0,0,0,0,0,0,3,0,7
2,24,2,7837,111,0,0,0,0,0,0,0,0,0,3,0,204
2,24,1,7840,112,0,0,0,0,0,0,0,0,0,3,0,53
2,24,3,7841,112,0,0,0,0,0,0,0,0,0,3,0,209
2,24,2,7843,112,0,0,0,0,0,0,0,0,0,3,0,141
2,24,3,7848,113,0,0,0,0,0,0,0,0,0,3,0,134
2,24,1,7849,113,0,0,0,0,0,0,0,0,0,3,0,98
2,24,2,7859,113,0,0,0,0,0,0,0,0,0,3,0,58
2,24,2,7866,114,0,0,0,0,0,0,0,0,0,3,0,33
2,24,3,7868,114,0,0,0,0,0,0,0,0,0,3,0,155
2,24,1,7871,114,0,0,0,0,0,0,0,0,0,3,0,12
2,24,3,7875,115,0,0,0,0,0,0,0,0,0,3,0,167
2,24,1,7876,115,0,0,0,0,0,0,0,0,0,3,0,214
2,24,2,7877,115,0,0,0,0,0,0,0,0,0,3,0,29
2,24,3,7880,116,0,0,0,0,0,0,0,0,0,3,0,87
2,24,1,7881,116,0,0,0,0,0,0,0,0,0,3,0,179
2,24,2,7882,116,0,0,0,0,0,0,0,0,0,3,0,11
2,24,1,7886,117,0,0,0,0,0,0,0,0,0,3,0,186
2,24,3,7887,117,0,0,0,0,0,0,0,0,0,3,0,94
2,24,2,7891,117,0,0,0,0,0,0,0,0,0,3,0,205
2,24,2,7895,118,0,0,0,0,0,0,0,0,0,3,0,65
2,24,1,7896,118,0,0,0,0,0,0,0,0,0,3,0,212
2,24,3,7897,118,0,0,0,0,0,0,0,0,0,3,0,48
2,24,1,7902,119,0,0,0,0,0,0,0,0,0,3,0,103
2,24,3,7903,119,0,0,0,0,0,0,0,0,0,3,0,131
2,24,2,7904,119,0,0,0,0,0,0,0,0,0,3,0,252
2,24,1,7908,120,0,0,0,0,0,0,0,0,0,3,0,174
2,24,3,7909,120,0,0,0,0,0,0,0,0,0,3,0,74
2,24,2,7911,120,0,0,0,0,0,0,0,0,0,3,0,22
2,24,1,7915,121,0,0,0,0,0,0,0,0,0,3,0,108
2,24,3,7916,121,0,0,0,0,0,0,0,0,0,3,0,29
2,24,2,7917,121,0,0,0,0,0,0,0,0,0,3,0,136
2,24,1,7918,121,0,0,0,0,0,0,0,0,0,3,0,48
2,24,3,7921,122,0,0,0,0,0,0,0,0,0,3,0,113
2,24,2,7922,122,0,0,0,0,0,0,0,0,0,3,0,151
2,24,1,7923,122,0,0,0,0,0,0,0,0,0,3,0,92
2,24,2,7926,123,0,0,0,0,0,0,0,0,0,3,0,87
2,24,1,7927,123,0,0,0,0,0,0,0,0,0,3,0,156
2,24,3,7929,123,0,0,0,0,0,0,0,0,0,3,0,156
2,24,3,7932,124,0,0,0,0,0,0,0,0,0,3,0,50
2,24,2,7933,124,0,0,0,0,0,0,0,0,0,3,0,167
2,24,1,7935,124,0,0,0,0,0,0,0,0,0,3,0,165
2,24,2,7938,125,0,0,0,0,0,0,0,0,0,3,0,49
2,24,3,7939,125,0,0,0,0,0,0,0,0,0,3,0,164
2,24,1,7940,125,0,0,0,0,0,0,0,0,0,3,0,213
2,24,2,7946,126,0,0,0,0,0,0,0,0,0,3,0,144
2,24,3,7947,126,0,0,0,0,0,0,0,0,0,3,0,5
2,24,1,7948,126,0,0,0,0,0,0,0,0,0,3,0,116
2,24,2,7952,127,0,0,0,0,0,0,0,0,0,3,0,159
2,24,1,7953,127,0,0,0,0,0,0,0,0,0,3,0,84
2,24,3,7954,127,0,0,0,0,0,0,0,0,0,3,0,195
2,24,1,7957,128,0,0,0,0,0,0,0,0,0,3,0,3
2,24,3,7958,128,0,0,0,0,0,0,0,0,0,3,0,148
2,24,2,7959,128,0,0,0,0,0,0,0,0,0,3,0,1
2,24,3,7964,129,0,0,0,0,0,0,0,0,0,3,0,10
2,24,2,7965,129,0,0,0,0,0,0,0,0,0,3,0,159
2,24,1,7966,129,0,0,0,0,0,0,0,0,0,3,0,39
2,24,3,7969,130,0,0,0,0,0,0,0,0,0,3,0,67
2,24,2,7970,130,0,0,0,0,0,0,0,0,0,3,0,165
2,24,1,7971,130,0,0,0,0,0,0,0,0,0,3,0,110
2,24,3,7974,131,0,0,0,0,0,0,0,0,0,3,0,74
2,24,1,7975,131,0,0,0,0,0,0,0,0,0,3,0,174
2,24,2,7977,131,0,0,0,0,0,0,0,0,0,3,0,129
2,24,1,7980,132,0,0,0,0,0,0,0,0,0,3,0,94
2,24,3,7981,132,0,0,0,0,0,0,0,0,0,3,0,186
2,24,2,7982,132,0,0,0,0,0,0,0,0,0,3,0,92
2,24,3,7986,133,0,0,0,0,0,0,0,0,0,3,0,233
2,24,2,7987,133,0,0,0,0,0,0,0,0,0,3,0,124
2,24,1,7988,133,0,0,0,0,0,0,0,0,0,3,0,34
2,24,3,7992,134,0,0,0,0,0,0,0,0,0,3,0,59
2,24,1,7993,134,0,0,0,0,0,0,0,0,0,3,0,223
2,24,2,7994,134,0,0,0,0,0,0,0,0,0,3,0,103
2,24,2,7998,135,0,0,0,0,0,0,0,0,0,3,0,167
2,24,1,7999,135,0,0,0,0,0,0,0,0,0,3,0,108
2,24,3,8000,135,0,0,0,0,0,0,0,0,0,3,0,40
2,24,1,8004,136,0,0,0,0,0,0,0,0,0,3,0,85
2,24,3,8005,136,0,0,0,0,0,0,0,0,0,3,0,177
2,24,2,8006,136,0,0,0,0,0,0,0,0,0,3,0,87
2,24,2,8010,137,0,0,0,0,0,0,0,0,0,3,0,92
2,24,3,8012,137,0,0,0,0,0,0,0,0,0,3,0,230
2,24,1,8013,137,0,0,0,0,0,0,0,0,0,3,0,2
2,24,1,8020,138,0,0,0,0,0,0,0,0,0,3,0,136
2,24,2,8021,138,0,0,0,0,0,0,0,0,0,3,0,67
2,24,3,8022,138,0,0,0,0,0,0,0,0,0,3,0,165
2,24,2,8025,139,0,0,0,0,0,0,0,0,0,3,0,72
2,24,1,8026,139,0,0,0,0,0,0,0,0,0,3,0,240
2,24,3,8035,139,0,0,0,0,0,0,0,0,0,3,0,107
2,24,2,8041,140,0,0,0,0,0,0,0,0,0,3,0,14
2,24,1,8042,140,0,0,0,0,0,0,0,0,0,3,0,182
2,24,3,8043,140,0,0,0,0,0,0,0,0,0,3,0,82
2,24,2,8047,141,0,0,0,0,0,0,0,0,0,3,0,189
2,24,3,8048,141,0,0,0,0,0,0,0,0,0,3,0,231
2,24,1,8049,141,0,0,0,0,0,0,0,0,0,3,0,3
2,24,3,8053,142,0,0,0,0,0,0,0,0,0,3,0,209
2,24,2,8054,142,0,0,0,0,0,0,0,0,0,3,0,55
2,24,1,8055,142,0,0,0,0,0,0,0,0,0,3,0,252
2,24,2,8058,143,0,0,0,0,0,0,0,0,0,3,0,60
2,24,1,8059,143,0,0,0,0,0,0,0,0,0,3,0,247
2,24,3,8060,143,0,0,0,0,0,0,0,0,0,3,0,134
2,24,3,8064,144,0,0,0,0,0,0,0,0,0,3,0,106
2,24,2,8065,144,0,0,0,0,0,0,0,0,0,3,0,255
2,24,1,8067,144,0,0,0,0,0,0,0,0,0,3,0,253
2,24,1,8074,145,0,0,0,0,0,0,0,0,0,3,0,170
2,24,3,8075,145,0,0,0,0,0,0,0,0,0,3,0,78
2,24,2,8077,145,0,0,0,0,0,0,0,0,0,3,0,244
2,24,3,8081,146,0,0,0,0,0,0,0,0,0,3,0,13
2,24,2,8082,146,0,0,0,0,0,0,0,0,0,3,0,235
2,24,1,8083,146,0,0,0,0,0,0,0,0,0,3,0,32
2,24,1,8087,147,0,0,0,0,0,0,0,0,0,3,0,224
2,24,3,8088,147,0,0,0,0,0,0,0,0,0,3,0,90
2,24,2,8089,147,0,0,0,0,0,0,0,0,0,3,0,207
2,24,3,8092,148,0,0,0,0,0,0,0,0,0,3,0,78
2,24,2,8093,148,0,0,0,0,0,0,0,0,0,3,0,219
2,24,1,8094,148,0,0,0,0,0,0,0,0,0,3,0,99
2,24,3,8099,149,0,0,0,0,0,0,0,0,0,3,0,56
2,24,1,8100,149,0,0,0,0,0,0,0,0,0,3,0,73
2,24,2,8101,149,0,0,0,0,0,0,0,0,0,3,0,130
2,24,2,8105,150,0,0,0,0,0,0,0,0,0,3,0,197
2,24,1,8107,150,0,0,0,0,0,0,0,0,0,3,0,199
2,24,3,8108,150,0,0,0,0,0,0,0,0,0,3,0,182
2,24,3,8112,151,0,0,0,0,0,0,0,0,0,3,0,44
2,24,1,8113,151,0,0,0,0,0,0,0,0,0,3,0,200
2,24,2,8114,151,0,0,0,0,0,0,0,0,0,3,0,112
2,24,3,8118,152,0,0,0,0,0,0,0,0,0,3,0,124
2,24,2,8119,152,0,0,0,0,0,0,0,0,0,3,0,233
2,24,1,8124,152,0,0,0,0,0,0,0,0,0,3,0,154
2,24,1,8127,153,0,0,0,0,0,0,0,0,0,3,0,117
2,24,2,8128,153,0,0,0,0,0,0,0,0,0,3,0,30
2,24,3,8130,153,0,0,0,0,0,0,0,0,0,3,0,66
2,24,1,8134,154,0,0,0,0,0,0,0,0,0,3,0,144
2,24,3,8135,154,0,0,0,0,0,0,0,0,0,3,0,116
2,24,2,8136,154,0,0,0,0,0,0,0,0,0,3,0,191
2,24,2,8140,155,0,0,0,0,0,0,0,0,0,3,0,127
2,24,1,8141,155,0,0,0,0,0,0,0,0,0,3,0,180
2,24,3,8142,155,0,0,0,0,0,0,0,0,0,3,0,35
2,24,1,8145,156,0,0,0,0,0,0,0,0,0,3,0,250
2,24,2,8146,156,0,0,0,0,0,0,0,0,0,3,0,66
2,24,3,8148,156,0,0,0,0,0,0,0,0,0,3,0,248
2,24,2,8149,156,0,0,0,0,0,0,0,0,0,3,0,109
2,24,2,8152,157,0,0,0,0,0,0,0,0,0,3,0,220
2,24,1,8154,157,0,0,0,0,0,0,0,0,0,3,0,222
2,24,3,8155,157,0,0,0,0,0,0,0,0,0,3,0,58
2,24,1,8158,158,0,0,0,0,0,0,0,0,0,3,0,82
2,24,3,8159,158,0,0,0,0,0,0,0,0,0,3,0,182
2,24,2,8160,158,0,0,0,0,0,0,0,0,0,3,0,201
2,24,2,8164,159,0,0,0,0,0,0,0,0,0,3,0,9
2,24,1,8165,159,0,0,0,0,0,0,0,0,0,3,0,194
2,24,3,8167,159,0,0,0,0,0,0,0,0,0,3,0,239
2,24,1,8170,160,0,0,0,0,0,0,0,0,0,3,0,81
2,24,3,8171,160,0,0,0,0,0,0,0,0,0,3,0,181
2,24,2,8173,160,0,0,0,0,0,0,0,0,0,3,0,15
2,24,3,8176,161,0,0,0,0,0,0,0,0,0,3,0,0
2,24,1,8177,161,0,0,0,0,0,0,0,0,0,3,0,228
2,24,2,8178,161,0,0,0,0,0,0,0,0,0,3,0,92
2,24,3,8182,162,0,0,0,0,0,0,0,0,0,3,0,255
2,24,1,8183,162,0,0,0,0,0,0,0,0,0,3,0,27
2,24,2,8184,162,0,0,0,0,0,0,0,0,0,3,0,142
2,24,2,8188,163,0,0,0,0,0,0,0,0,0,3,0,78
2,24,3,8189,163,0,0,0,0,0,0,0,0,0,3,0,219
2,24,1,8190,163,0,0,0,0,0,0,0,0,0,3,0,76
2,24,3,8194,164,0,0,0,0,0,0,0,0,0,3,0,214
2,24,1,8195,164,0,0,0,0,0,0,0,0,0,3,0,50
2,24,2,8199,164,0,0,0,0,0,0,0,0,0,3,0,165
2,24,3,8202,165,0,0,0,0,0,0,0,0,0,3,0,59
2,24,1,8203,165,0,0,0,0,0,0,0,0,0,3,0,223
2,24,2,8204,165,0,0,0,0,0,0,0,0,0,3,0,129
2,24,1,8207,166,0,0,0,0,0,0,0,0,0,3,0,83
2,24,3,8209,166,0,0,0,0,0,0,0,0,0,3,0,194
2,24,2,8210,166,0,0,0,0,0,0,0,0,0,3,0,36
2,24,3,8214,167,0,0,0,0,0,0,0,0,0,3,0,203
2,24,1,8215,167,0,0,0,0,0,0,0,0,0,3,0,47
2,24,2,8216,167,0,0,0,0,0,0,0,0,0,3,0,186
2,24,3,8219,168,0,0,0,0,0,0,0,0,0,3,0,153
2,24,1,8220,168,0,0,0,0,0,0,0,0,0,3,0,232
2,24,2,8222,168,0,0,0,0,0,0,0,0,0,3,0,234
2,24,3,8225,169,0,0,0,0,0,0,0,0,0,3,0,179
2,24,2,8226,169,0,0,0,0,0,0,0,0,0,3,0,85
2,24,1,8231,169,0,0,0,0,0,0,0,0,0,3,0,120
2,24,2,8237,170,0,0,0,0,0,0,0,0,0,3,0,219
2,24,1,8238,170,0,0,0,0,0,0,0,0,0,3,0,99
2,24,3,8239,170,0,0,0,0,0,0,0,0,0,3,0,135
2,24,3,8244,171,0,0,0,0,0,0,0,0,0,3,0,50
2,24,2,8245,171,0,0,0,0,0,0,0,0,0,3,0,167
2,24,1,8246,171,0,0,0,0,0,0,0,0,0,3,0,31
2,24,3,8249,172,0,0,0,0,0,0,0,0,0,3,0,87
2,24,1,8250,172,0,0,0,0,0,0,0,0,0,3,0,192
2,24,2,8251,172,0,0,0,0,0,0,0,0,0,3,0,11
2,24,1,8255,173,0,0,0,0,0,0,0,0,0,3,0,186
2,24,2,8257,173,0,0,0,0,0,0,0,0,0,3,0,107
2,24,3,8258,173,0,0,0,0,0,0,0,0,0,3,0,141
2,24,1,8261,174,0,0,0,0,0,0,0,0,0,3,0,150
2,24,3,8262,174,0,0,0,0,0,0,0,0,0,3,0,1
2,24,2,8263,174,0,0,0,0,0,0,0,0,0,3,0,148
2,24,1,8267,175,0,0,0,0,0,0,0,0,0,3,0,238
2,24,2,8269,175,0,0,0,0,0,0,0,0,0,3,0,10
2,24,3,8277,175,0,0,0,0,0,0,0,0,0,3,0,127
2,24,3,8280,176,0,0,0,0,0,0,0,0,0,3,0,67
2,24,2,8281,176,0,0,0,0,0,0,0,0,0,3,0,214
2,24,1,8284,176,0,0,0,0,0,0,0,0,0,3,0,251
2,24,3,8291,177,0,0,0,0,0,0,0,0,0,3,0,211
2,24,2,8292,177,0,0,0,0,0,0,0,0,0,3,0,211
2,24,1,8293,177,0,0,0,0,0,0,0,0,0,3,0,24
2,24,3,8297,178,0,0,0,0,0,0,0,0,0,3,0,1
2,24,2,8298,178,0,0,0,0,0,0,0,0,0,3,0,231
2,24,1,8299,178,0,0,0,0,0,0,0,0,0,3,0,44
2,24,1,8303,179,0,0,0,0,0,0,0,0,0,3,0,236
2,24,2,8304,179,0,0,0,0,0,0,0,0,0,3,0,232
2,24,3,8306,179,0,0,0,0,0,0,0,0,0,3,0,180
2,24,2,8310,180,0,0,0,0,0,0,0,0,0,3,0,143
2,24,3,8312,180,0,0,0,0,0,0,0,0,0,3,0,254
2,24,1,8313,180,0,0,0,0,0,0,0,0,0,3,0,26
2,24,1,8316,181,0,0,0,0,0,0,0,0,0,3,0,96
2,24,2,8317,181,0,0,0,0,0,0,0,0,0,3,0,171
2,24,3,8318,181,0,0,0,0,0,0,0,0,0,3,0,77
2,24,1,8324,182,0,0,0,0,0,0,0,0,0,3,0,171
2,24,3,8325,182,0,0,0,0,0,0,0,0,0,3,0,79
2,24,2,8326,182,0,0,0,0,0,0,0,0,0,3,0,169
2,24,3,8329,182,0,0,0,0,0,0,0,0,0,3,0,98
2,24,1,8332,183,0,0,0,0,0,0,0,0,0,3,0,70
2,24,2,8333,183,0,0,0,0,0,0,0,0,0,3,0,141
2,24,3,8334,183,0,0,0,0,0,0,0,0,0,3,0,107
2,24,2,8338,184,0,0,0,0,0,0,0,0,0,3,0,61
2,24,3,8339,184,0,0,0,0,0,0,0,0,0,3,0,168
2,24,1,8340,184,0,0,0,0,0,0,0,0,0,3,0,217
2,24,1,8343,185,0,0,0,0,0,0,0,0,0,3,0,54
2,24,2,8345,185,0,0,0,0,0,0,0,0,0,3,0,25
2,24,3,8347,185,0,0,0,0,0,0,0,0,0,3,0,69
2,24,2,8351,186,0,0,0,0,0,0,0,0,0,3,0,230
2,24,3,8352,186,0,0,0,0,0,0,0,0,0,3,0,153
2,24,1,8354,186,0,0,0,0,0,0,0,0,0,3,0,180
2,24,3,8360,187,0,0,0,0,0,0,0,0,0,3,0,116
2,24,1,8361,187,0,0,0,0,0,0,0,0,0,3,0,144
2,24,2,8362,187,0,0,0,0,0,0,0,0,0,3,0,40
2,24,3,8367,188,0,0,0,0,0,0,0,0,0,3,0,169
2,24,1,8368,188,0,0,0,0,0,0,0,0,0,3,0,130
2,24,2,8374,188,0,0,0,0,0,0,0,0,0,3,0,102
2,24,1,8377,189,0,0,0,0,0,0,0,0,0,3,0,213
2,24,2,8378,189,0,0,0,0,0,0,0,0,0,3,0,109
2,24,3,8379,189,0,0,0,0,0,0,0,0,0,3,0,248
2,24,3,8384,190,0,0,0,0,0,0,0,0,0,3,0,110
2,24,2,8385,190,0,0,0,0,0,0,0,0,0,3,0,251
2,24,1,8386,190,0,0,0,0,0,0,0,0,0,3,0,67
2,24,3,8389,191,0,0,0,0,0,0,0,0,0,3,0,20
2,24,1,8390,191,0,0,0,0,0,0,0,0,0,3,0,131
2,24,2,8391,191,0,0,0,0,0,0,0,0,0,3,0,72
2,24,1,8394,192,0,0,0,0,0,0,0,0,0,3,0,102
2,24,2,8395,192,0,0,0,0,0,0,0,0,0,3,0,173
2,24,3,8402,192,0,0,0,0,0,0,0,0,0,3,0,98
2,24,3,8406,193,0,0,0,0,0,0,0,0,0,3,0,162
2,24,1,8407,193,0,0,0,0,0,0,0,0,0,3,0,70
2,24,2,8408,193,0,0,0,0,0,0,0,0,0,3,0,211
2,24,2,8412,194,0,0,0,0,0,0,0,0,0,3,0,95
2,24,1,8414,194,0,0,0,0,0,0,0,0,0,3,0,93
2,24,3,8415,194,0,0,0,0,0,0,0,0,0,3,0,185
2,24,3,8418,195,0,0,0,0,0,0,0,0,0,3,0,188
2,24,1,8419,195,0,0,0,0,0,0,0,0,0,3,0,88
2,24,2,8420,195,0,0,0,0,0,0,0,0,0,3,0,6
2,24,3,8424,196,0,0,0,0,0,0,0,0,0,3,0,246
2,24,1,8425,196,0,0,0,0,0,0,0,0,0,3,0,18
2,24,2,8427,196,0,0,0,0,0,0,0,0,0,3,0,16
2,24,3,8430,197,0,0,0,0,0,0,0,0,0,3,0,69
2,24,2,8431,197,0,0,0,0,0,0,0,0,0,3,0,208
2,24,1,8433,197,0,0,0,0,0,0,0,0,0,3,0,110
2,24,2,8437,198,0,0,0,0,0,0,0,0,0,3,0,147
2,24,1,8438,198,0,0,0,0,0,0,0,0,0,3,0,43
2,24,3,8439,198,0,0,0,0,0,0,0,0,0,3,0,207
2,24,3,8445,199,0,0,0,0,0,0,0,0,0,3,0,81
2,24,2,8446,199,0,0,0,0,0,0,0,0,0,3,0,183
2,24,1,8448,199,0,0,0,0,0,0,0,0,0,3,0,204
2,24,1,8452,200,0,0,0,0,0,0,0,0,0,3,0,239
2,24,2,8453,200,0,0,0,0,0,0,0,0,0,3,0,36
2,24,3,8457,200,0,0,0,0,0,0,0,0,0,3,0,38
2,24,3,8462,201,0,0,0,0,0,0,0,0,0,3,0,47
2,24,2,8463,201,0,0,0,0,0,0,0,0,0,3,0,186
2,24,1,8464,201,0,0,0,0,0,0,0,0,0,3,0,190
2,24,2,8467,202,0,0,0,0,0,0,0,0,0,3,0,108
2,24,3,8468,202,0,0,0,0,0,0,0,0,0,3,0,108
2,24,1,8469,202,0,0,0,0,0,0,0,0,0,3,0,136
2,24,2,8474,203,0,0,0,0,0,0,0,0,0,3,0,59
2,24,3,8475,203,0,0,0,0,0,0,0,0,0,3,0,174
2,24,1,8476,203,0,0,0,0,0,0,0,0,0,3,0,223
2,24,2,8484,204,0,0,0,0,0,0,0,0,0,3,0,35
2,24,3,8485,204,0,0,0,0,0,0,0,0,0,3,0,182
2,24,1,8488,204,0,0,0,0,0,0,0,0,0,3,0,127
2,24,3,8491,205,0,0,0,0,0,0,0,0,0,3,0,206
2,24,1,8492,205,0,0,0,0,0,0,0,0,0,3,0,191
2,24,2,8493,205,0,0,0,0,0,0,0,0,0,3,0,116
2,24,1,8497,206,0,0,0,0,0,0,0,0,0,3,0,211
2,24,2,8498,206,0,0,0,0,0,0,0,0,0,3,0,107
2,24,3,8500,206,0,0,0,0,0,0,0,0,0,3,0,209
2,24,3,8503,207,0,0,0,0,0,0,0,0,0,3,0,62
2,24,1,8504,207,0,0,0,0,0,0,0,0,0,3,0,132
2,24,2,8505,207,0,0,0,0,0,0,0,0,0,3,0,79
2,24,1,8508,208,0,0,0,0,0,0,0,0,0,3,0,201
2,24,2,8509,208,0,0,0,0,0,0,0,0,0,3,0,2
2,24,3,8513,208,0,0,0,0,0,0,0,0,0,3,0,254
2,24,3,8516,209,0,0,0,0,0,0,0,0,0,3,0,132
2,24,2,8517,209,0,0,0,0,0,0,0,0,0,3,0,17
2,24,1,8519,209,0,0,0,0,0,0,0,0,0,3,0,19
2,24,3,8524,210,0,0,0,0,0,0,0,0,0,3,0,37
2,24,1,8525,210,0,0,0,0,0,0,0,0,0,3,0,193
2,24,2,8526,210,0,0,0,0,0,0,0,0,0,3,0,121
2,24,1,8530,211,0,0,0,0,0,0,0,0,0,3,0,146
2,24,3,8531,211,0,0,0,0,0,0,0,0,0,3,0,118
2,24,2,8532,211,0,0,0,0,0,0,0,0,0,3,0,118
2,24,1,8533,211,0,0,0,0,0,0,0,0,0,3,0,189
2,24,3,8536,212,0,0,0,0,0,0,0,0,0,3,0,134
2,24,2,8536,212,0,0,0,0,0,0,0,0,0,3,0,169
2,24,1,8538,212,0,0,0,0,0,0,0,0,0,3,0,171
2,24,2,8541,213,0,0,0,0,0,0,0,0,0,3,0,211
2,24,3,8542,213,0,0,0,0,0,0,0,0,0,3,0,53
2,24,1,8543,213,0,0,0,0,0,0,0,0,0,3,0,209
2,24,2,8546,214,0,0,0,0,0,0,0,0,0,3,0,233
2,24,3,8547,214,0,0,0,0,0,0,0,0,0,3,0,124
2,24,1,8548,214,0,0,0,0,0,0,0,0,0,3,0,13
2,24,1,8553,215,0,0,0,0,0,0,0,0,0,3,0,188
2,24,3,8554,215,0,0,0,0,0,0,0,0,0,3,0,43
2,24,2,8556,215,0,0,0,0,0,0,0,0,0,3,0,145
2,24,3,8559,216,0,0,0,0,0,0,0,0,0,3,0,178
2,24,1,8560,216,0,0,0,0,0,0,0,0,0,3,0,153
2,24,2,8561,216,0,0,0,0,0,0,0,0,0,3,0,82
2,24,2,8565,217,0,0,0,0,0,0,0,0,0,3,0,146
2,24,3,8566,217,0,0,0,0,0,0,0,0,0,3,0,116
2,24,1,8567,217,0,0,0,0,0,0,0,0,0,3,0,144
2,24,1,8571,218,0,0,0,0,0,0,0,0,0,3,0,215
2,24,3,8572,218,0,0,0,0,0,0,0,0,0,3,0,166
2,24,2,8573,218,0,0,0,0,0,0,0,0,0,3,0,51
2,24,3,8578,219,0,0,0,0,0,0,0,0,0,3,0,180
2,24,1,8579,219,0,0,0,0,0,0,0,0,0,3,0,80
2,24,2,8581,219,0,0,0,0,0,0,0,0,0,3,0,180
2,24,2,8584,220,0,0,0,0,0,0,0,0,0,3,0,209
2,24,1,8585,220,0,0,0,0,0,0,0,0,0,3,0,26
2,24,3,8586,220,0,0,0,0,0,0,0,0,0,3,0,141
2,24,3,8590,221,0,0,0,0,0,0,0,0,0,3,0,77
2,24,2,8591,221,0,0,0,0,0,0,0,0,0,3,0,216
2,24,1,8597,221,0,0,0,0,0,0,0,0,0,3,0,128
2,24,1,8600,222,0,0,0,0,0,0,0,0,0,3,0,125
2,24,3,8601,222,0,0,0,0,0,0,0,0,0,3,0,153
2,24,2,8602,222,0,0,0,0,0,0,0,0,0,3,0,127
2,24,1,8606,223,0,0,0,0,0,0,0,0,0,3,0,206
2,24,3,8607,223,0,0,0,0,0,0,0,0,0,3,0,42
2,24,2,8608,223,0,0,0,0,0,0,0,0,0,3,0,85
2,24,2,8611,224,0,0,0,0,0,0,0,0,0,3,0,235
2,24,1,8614,224,0,0,0,0,0,0,0,0,0,3,0,198
2,24,3,8625,224,0,0,0,0,0,0,0,0,0,3,0,38
2,24,2,8628,225,0,0,0,0,0,0,0,0,0,3,0,115
2,24,3,8629,225,0,0,0,0,0,0,0,0,0,3,0,230
2,24,1,8630,225,0,0,0,0,0,0,0,0,0,3,0,113
2,24,3,8634,226,0,0,0,0,0,0,0,0,0,3,0,104
2,24,2,8635,226,0,0,0,0,0,0,0,0,0,3,0,253
2,24,1,8641,226,0,0,0,0,0,0,0,0,0,3,0,202
2,24,2,8644,227,0,0,0,0,0,0,0,0,0,3,0,193
2,24,3,8645,227,0,0,0,0,0,0,0,0,0,3,0,84
2,24,1,8646,227,0,0,0,0,0,0,0,0,0,3,0,195
2,24,2,8650,228,0,0,0,0,0,0,0,0,0,3,0,109
2,24,1,8652,228,0,0,0,0,0,0,0,0,0,3,0,137
2,24,3,8653,228,0,0,0,0,0,0,0,0,0,3,0,109
2,24,2,8660,229,0,0,0,0,0,0,0,0,0,3,0,132
2,24,3,8661,229,0,0,0,0,0,0,0,0,0,3,0,17
2,24,1,8662,229,0,0,0,0,0,0,0,0,0,3,0,134
2,24,3,8667,230,0,0,0,0,0,0,0,0,0,3,0,37
2,24,2,8668,230,0,0,0,0,0,0,0,0,0,3,0,37
2,24,1,8669,230,0,0,0,0,0,0,0,0,0,3,0,238
2,24,2,8672,231,0,0,0,0,0,0,0,0,0,3,0,154
2,24,3,8673,231,0,0,0,0,0,0,0,0,0,3,0,15
2,24,1,8674,231,0,0,0,0,0,0,0,0,0,3,0,152
2,24,2,8679,232,0,0,0,0,0,0,0,0,0,3,0,112
2,24,3,8680,232,0,0,0,0,0,0,0,0,0,3,0,187
2,24,1,8681,232,0,0,0,0,0,0,0,0,0,3,0,95
2,24,2,8685,233,0,0,0,0,0,0,0,0,0,3,0,238
2,24,3,8686,233,0,0,0,0,0,0,0,0,0,3,0,8
2,24,1,8687,233,0,0,0,0,0,0,0,0,0,3,0,236
2,24,1,8690,234,0,0,0,0,0,0,0,0,0,3,0,128
2,24,3,8691,234,0,0,0,0,0,0,0,0,0,3,0,100
2,24,2,8693,234,0,0,0,0,0,0,0,0,0,3,0,222
2,24,2,8696,235,0,0,0,0,0,0,0,0,0,3,0,111
2,24,3,8697,235,0,0,0,0,0,0,0,0,0,3,0,250
2,24,1,8698,235,0,0,0,0,0,0,0,0,0,3,0,109
2,24,3,8702,236,0,0,0,0,0,0,0,0,0,3,0,39
2,24,1,8703,236,0,0,0,0,0,0,0,0,0,3,0,195
2,24,2,8704,236,0,0,0,0,0,0,0,0,0,3,0,126
2,24,2,8707,237,0,0,0,0,0,0,0,0,0,3,0,145
2,24,1,8708,237,0,0,0,0,0,0,0,0,0,3,0,207
2,24,3,8709,237,0,0,0,0,0,0,0,0,0,3,0,43
2,24,3,8714,238,0,0,0,0,0,0,0,0,0,3,0,165
2,24,2,8715,238,0,0,0,0,0,0,0,0,0,3,0,48
2,24,1,8716,238,0,0,0,0,0,0,0,0,0,3,0,110
2,24,2,8721,239,0,0,0,0,0,0,0,0,0,3,0,63
2,24,3,8722,239,0,0,0,0,0,0,0,0,0,3,0,217
2,24,1,8723,239,0,0,0,0,0,0,0,0,0,3,0,61
2,24,3,8727,240,0,0,0,0,0,0,0,0,0,3,0,46
2,24,2,8728,240,0,0,0,0,0,0,0,0,0,3,0,229
2,24,1,8729,240,0,0,0,0,0,0,0,0,0,3,0,46
2,24,1,8734,241,0,0,0,0,0,0,0,0,0,3,0,39
2,24,2,8735,241,0,0,0,0,0,0,0,0,0,3,0,236
2,24,3,8736,241,0,0,0,0,0,0,0,0,0,3,0,147
2,24,2,8739,242,0,0,0,0,0,0,0,0,0,3,0,31
2,24,3,8740,242,0,0,0,0,0,0,0,0,0,3,0,31
2,24,1,8741,242,0,0,0,0,0,0,0,0,0,3,0,251
2,24,3,8745,243,0,0,0,0,0,0,0,0,0,3,0,174
2,24,1,8746,243,0,0,0,0,0,0,0,0,0,3,0,57
2,24,2,8747,243,0,0,0,0,0,0,0,0,0,3,0,242
2,24,2,8751,244,0,0,0,0,0,0,0,0,0,3,0,230
2,24,1,8752,244,0,0,0,0,0,0,0,0,0,3,0,226
2,24,3,8753,244,0,0,0,0,0,0,0,0,0,3,0,6
2,24,2,8757,245,0,0,0,0,0,0,0,0,0,3,0,233
2,24,3,8758,245,0,0,0,0,0,0,0,0,0,3,0,15
2,24,1,8759,245,0,0,0,0,0,0,0,0,0,3,0,235
2,24,3,8762,246,0,0,0,0,0,0,0,0,0,3,0,72
2,24,2,8763,246,0,0,0,0,0,0,0,0,0,3,0,221
2,24,1,8768,246,0,0,0,0,0,0,0,0,0,3,0,80
2,24,3,8771,247,0,0,0,0,0,0,0,0,0,3,0,225
2,24,2,8772,247,0,0,0,0,0,0,0,0,0,3,0,225
2,24,1,8773,247,0,0,0,0,0,0,0,0,0,3,0,42
2,24,2,8777,248,0,0,0,0,0,0,0,0,0,3,0,179
2,24,3,8778,248,0,0,0,0,0,0,0,0,0,3,0,85
2,24,1,8779,248,0,0,0,0,0,0,0,0,0,3,0,177
2,24,1,8783,249,0,0,0,0,0,0,0,0,0,3,0,113
2,24,3,8783,249,0,0,0,0,0,0,0,0,0,3,0,47
2,24,2,8785,249,0,0,0,0,0,0,0,0,0,3,0,207
2,24,1,8788,250,0,0,0,0,0,0,0,0,0,3,0,136
2,24,3,8789,250,0,0,0,0,0,0,0,0,0,3,0,108
2,24,2,8790,250,0,0,0,0,0,0,0,0,0,3,0,138
2,24,2,8794,251,0,0,0,0,0,0,0,0,0,3,0,129
2,24,3,8795,251,0,0,0,0,0,0,0,0,0,3,0,20
2,24,1,8796,251,0,0,0,0,0,0,0,0,0,3,0,101
2,24,3,8799,252,0,0,0,0,0,0,0,0,0,3,0,0
2,24,2,8800,252,0,0,0,0,0,0,0,0,0,3,0,127
2,24,1,8805,252,0,0,0,0,0,0,0,0,0,3,0,82
2,24,2,8810,253,0,0,0,0,0,0,0,0,0,3,0,225
2,24,3,8811,253,0,0,0,0,0,0,0,0,0,3,0,116
2,24,1,8812,253,0,0,0,0,0,0,0,0,0,3,0,5
2,24,3,8815,254,0,0,0,0,0,0,0,0,0,3,0,248
2,24,2,8816,254,0,0,0,0,0,0,0,0,0,3,0,162
2,24,1,8817,254,0,0,0,0,0,0,0,0,0,3,0,105
2,24,1,8825,255,0,0,0,0,0,0,0,0,0,3,0,132
2,24,2,8826,255,0,0,0,0,0,0,0,0,0,3,0,60
2,24,3,8827,255,0,0,0,0,0,0,0,0,0,3,0,169
2,24,1,8831,256,0,0,0,0,0,0,0,0,0,3,0,25
2,24,3,8832,256,0,0,0,0,0,0,0,0,0,3,0,201
2,24,2,8833,256,0,0,0,0,0,0,0,0,0,3,0,92
2,24,3,8838,257,0,0,0,0,0,0,0,0,0,3,0,122
2,24,1,8839,257,0,0,0,0,0,0,0,0,0,3,0,158
2,24,2,8840,257,0,0,0,0,0,0,0,0,0,3,0,11
2,24,1,8844,258,0,0,0,0,0,0,0,0,0,3,0,246
2,24,2,8845,258,0,0,0,0,0,0,0,0,0,3,0,61
2,24,3,8848,258,0,0,0,0,0,0,0,0,0,3,0,20
2,24,2,8851,259,0,0,0,0,0,0,0,0,0,3,0,212
2,24,1,8852,259,0,0,0,0,0,0,0,0,0,3,0,138
2,24,3,8853,259,0,0,0,0,0,0,0,0,0,3,0,110
2,24,1,8858,260,0,0,0,0,0,0,0,0,0,3,0,38
2,24,3,8859,260,0,0,0,0,0,0,0,0,0,3,0,194
2,24,2,8860,260,0,0,0,0,0,0,0,0,0,3,0,194
2,24,2,8866,261,0,0,0,0,0,0,0,0,0,3,0,14
2,24,3,8867,261,0,0,0,0,0,0,0,0,0,3,0,155
2,24,1,8869,261,0,0,0,0,0,0,0,0,0,3,0,80
2,24,3,8872,262,0,0,0,0,0,0,0,0,0,3,0,243
2,24,1,8873,262,0,0,0,0,0,0,0,0,0,3,0,23
2,24,2,8875,262,0,0,0,0,0,0,0,0,0,3,0,21
2,24,1,8878,263,0,0,0,0,0,0,0,0,0,3,0,30
2,24,3,8879,263,0,0,0,0,0,0,0,0,0,3,0,250
2,24,2,8880,263,0,0,0,0,0,0,0,0,0,3,0,160
2,24,3,8885,264,0,0,0,0,0,0,0,0,0,3,0,22
2,24,2,8886,264,0,0,0,0,0,0,0,0,0,3,0,240
2,24,1,8888,264,0,0,0,0,0,0,0,0,0,3,0,223
2,24,2,8889,264,0,0,0,0,0,0,0,0,0,3,0,20
2,24,3,8892,265,0,0,0,0,0,0,0,0,0,3,0,65
2,24,2,8893,265,0,0,0,0,0,0,0,0,0,3,0,212
2,24,1,8896,265,0,0,0,0,0,0,0,0,0,3,0,204
2,24,2,8901,266,0,0,0,0,0,0,0,0,0,3,0,139
2,24,1,8902,266,0,0,0,0,0,0,0,0,0,3,0,51
2,24,3,8903,266,0,0,0,0,0,0,0,0,0,3,0,215
2,24,3,8908,267,0,0,0,0,0,0,0,0,0,3,0,243
2,24,2,8909,267,0,0,0,0,0,0,0,0,0,3,0,102
2,24,1,8910,267,0,0,0,0,0,0,0,0,0,3,0,222
2,24,2,8911,267,0,0,0,0,0,0,0,0,0,3,0,21
2,24,2,8913,268,0,0,0,0,0,0,0,0,0,3,0,40
2,24,3,8914,268,0,0,0,0,0,0,0,0,0,3,0,206
2,24,1,8919,268,0,0,0,0,0,0,0,0,0,3,0,204
2,24,3,8923,269,0,0,0,0,0,0,0,0,0,3,0,153
2,24,1,8924,269,0,0,0,0,0,0,0,0,0,3,0,232
2,24,2,8926,269,0,0,0,0,0,0,0,0,0,3,0,234
2,24,1,8930,269,0,0,0,0,0,0,0,0,0,3,0,2
2,24,2,8931,269,0,0,0,0,0,0,0,0,0,3,0,201
2,24,3,8933,269,0,0,0,0,0,0,0,0,0,3,0,115
2,24,3,8983,271,0,0,0,0,0,0,0,0,0,3,0,24
2,24,2,8984,271,0,0,0,0,0,0,0,0,0,3,0,211
2,24,1,8992,271,0,0,0,0,0,0,0,0,0,3,0,221
2,24,1,8999,272,0,0,0,0,0,0,0,0,0,3,0,89
2,24,3,9000,272,0,0,0,0,0,0,0,0,0,3,0,227
2,24,2,9008,272,0,0,0,0,0,0,0,0,0,3,0,150
2,24,2,9011,273,0,0,0,0,0,0,0,0,0,3,0,121
2,24,1,9012,273,0,0,0,0,0,0,0,0,0,3,0,39
2,24,3,9013,273,0,0,0,0,0,0,0,0,0,3,0,195
2,24,2,9023,274,0,0,0,0,0,0,0,0,0,3,0,62
2,24,1,9024,274,0,0,0,0,0,0,0,0,0,3,0,85
2,24,3,9025,274,0,0,0,0,0,0,0,0,0,3,0,177
2,24,2,9029,275,0,0,0,0,0,0,0,0,0,3,0,94
2,24,1,9030,275,0,0,0,0,0,0,0,0,0,3,0,230
2,24,3,9031,275,0,0,0,0,0,0,0,0,0,3,0,2
2,24,3,9035,276,0,0,0,0,0,0,0,0,0,3,0,221
2,24,1,9036,276,0,0,0,0,0,0,0,0,0,3,0,172
2,24,2,9037,276,0,0,0,0,0,0,0,0,0,3,0,103
2,24,2,9040,277,0,0,0,0,0,0,0,0,0,3,0,71
2,24,3,9042,277,0,0,0,0,0,0,0,0,0,3,0,27
2,24,1,9043,277,0,0,0,0,0,0,0,0,0,3,0,255
2,24,3,9047,278,0,0,0,0,0,0,0,0,0,3,0,45
2,24,1,9048,278,0,0,0,0,0,0,0,0,0,3,0,151
2,24,2,9049,278,0,0,0,0,0,0,0,0,0,3,0,92
2,24,1,9052,279,0,0,0,0,0,0,0,0,0,3,0,87
2,24,3,9053,279,0,0,0,0,0,0,0,0,0,3,0,179
2,24,2,9054,279,0,0,0,0,0,0,0,0,0,3,0,85
2,24,1,9057,280,0,0,0,0,0,0,0,0,0,3,0,177
2,24,2,9058,280,0,0,0,0,0,0,0,0,0,3,0,9
2,24,3,9059,280,0,0,0,0,0,0,0,0,0,3,0,156
2,24,2,9063,281,0,0,0,0,0,0,0,0,0,3,0,115
2,24,3,9064,281,0,0,0,0,0,0,0,0,0,3,0,184
2,24,1,9065,281,0,0,0,0,0,0,0,0,0,3,0,92
2,24,2,9069,282,0,0,0,0,0,0,0,0,0,3,0,161
2,24,1,9070,282,0,0,0,0,0,0,0,0,0,3,0,25
2,24,3,9072,282,0,0,0,0,0,0,0,0,0,3,0,136
2,24,2,9077,283,0,0,0,0,0,0,0,0,0,3,0,221
2,24,3,9078,283,0,0,0,0,0,0,0,0,0,3,0,59
2,24,1,9080,283,0,0,0,0,0,0,0,0,0,3,0,59
2,24,2,9084,284,0,0,0,0,0,0,0,0,0,3,0,94
2,24,1,9085,284,0,0,0,0,0,0,0,0,0,3,0,149
2,24,3,9086,284,0,0,0,0,0,0,0,0,0,3,0,2
2,24,3,9090,285,0,0,0,0,0,0,0,0,0,3,0,99
2,24,2,9091,285,0,0,0,0,0,0,0,0,0,3,0,246
2,24,1,9092,285,0,0,0,0,0,0,0,0,0,3,0,168
2,24,3,9096,286,0,0,0,0,0,0,0,0,0,3,0,177
2,24,2,9097,286,0,0,0,0,0,0,0,0,0,3,0,36
2,24,1,9098,286,0,0,0,0,0,0,0,0,0,3,0,156
2,24,1,9102,287,0,0,0,0,0,0,0,0,0,3,0,92
2,24,3,9103,287,0,0,0,0,0,0,0,0,0,3,0,184
2,24,2,9105,287,0,0,0,0,0,0,0,0,0,3,0,88
2,24,2,9108,288,0,0,0,0,0,0,0,0,0,3,0,115
2,24,3,9109,288,0,0,0,0,0,0,0,0,0,3,0,230
2,24,1,9110,288,0,0,0,0,0,0,0,0,0,3,0,113
2,24,1,9114,289,0,0,0,0,0,0,0,0,0,3,0,122
2,24,3,9115,289,0,0,0,0,0,0,0,0,0,3,0,158
2,24,2,9116,289,0,0,0,0,0,0,0,0,0,3,0,158
2,24,3,9119,290,0,0,0,0,0,0,0,0,0,3,0,18
2,24,1,9120,290,0,0,0,0,0,0,0,0,0,3,0,28
2,24,2,9121,290,0,0,0,0,0,0,0,0,0,3,0,215
2,24,2,9125,291,0,0,0,0,0,0,0,0,0,3,0,23
2,24,1,9127,291,0,0,0,0,0,0,0,0,0,3,0,21
2,24,3,9128,291,0,0,0,0,0,0,0,0,0,3,0,175
2,24,2,9132,292,0,0,0,0,0,0,0,0,0,3,0,148
2,24,1,9133,292,0,0,0,0,0,0,0,0,0,3,0,95
2,24,3,9134,292,0,0,0,0,0,0,0,0,0,3,0,200
2,24,3,9137,293,0,0,0,0,0,0,0,0,0,3,0,155
2,24,2,9138,293,0,0,0,0,0,0,0,0,0,3,0,125
2,24,1,9139,293,0,0,0,0,0,0,0,0,0,3,0,182
2,24,1,9145,294,0,0,0,0,0,0,0,0,0,3,0,100
2,24,3,9146,294,0,0,0,0,0,0,0,0,0,3,0,243
2,24,2,9148,294,0,0,0,0,0,0,0,0,0,3,0,73
2,24,2,9151,295,0,0,0,0,0,0,0,0,0,3,0,166
2,24,3,9152,295,0,0,0,0,0,0,0,0,0,3,0,147
2,24,1,9153,295,0,0,0,0,0,0,0,0,0,3,0,119
2,24,3,9157,296,0,0,0,0,0,0,0,0,0,3,0,10
2,24,1,9158,296,0,0,0,0,0,0,0,0,0,3,0,157
2,24,2,9159,296,0,0,0,0,0,0,0,0,0,3,0,86
2,24,3,9162,297,0,0,0,0,0,0,0,0,0,3,0,200
2,24,1,9164,297,0,0,0,0,0,0,0,0,0,3,0,3
2,24,2,9165,297,0,0,0,0,0,0,0,0,0,3,0,200
2,24,2,9168,298,0,0,0,0,0,0,0,0,0,3,0,164
2,24,1,9169,298,0,0,0,0,0,0,0,0,0,3,0,111
2,24,3,9170,298,0,0,0,0,0,0,0,0,0,3,0,248
2,24,1,9174,298,0,0,0,0,0,0,0,0,0,3,0,64
2,24,3,9177,299,0,0,0,0,0,0,0,0,0,3,0,220
2,24,1,9178,299,0,0,0,0,0,0,0,0,0,3,0,75
2,24,2,9179,299,0,0,0,0,0,0,0,0,0,3,0,128
2,24,2,9184,300,0,0,0,0,0,0,0,0,0,3,0,196
2,24,1,9185,300,0,0,0,0,0,0,0,0,0,3,0,15
2,24,3,9187,300,0,0,0,0,0,0,0,0,0,3,0,34
2,24,1,9191,301,0,0,0,0,0,0,0,0,0,3,0,188
2,24,3,9192,301,0,0,0,0,0,0,0,0,0,3,0,6
2,24,2,9193,301,0,0,0,0,0,0,0,0,0,3,0,147
2,24,3,9197,302,0,0,0,0,0,0,0,0,0,3,0,48
2,24,1,9198,302,0,0,0,0,0,0,0,0,0,3,0,167
2,24,2,9199,302,0,0,0,0,0,0,0,0,0,3,0,108
2,24,1,9202,303,0,0,0,0,0,0,0,0,0,3,0,61
2,24,3,9203,303,0,0,0,0,0,0,0,0,0,3,0,217
2,24,2,9204,303,0,0,0,0,0,0,0,0,0,3,0,217
2,24,1,9209,304,0,0,0,0,0,0,0,0,0,3,0,148
2,24,2,9210,304,0,0,0,0,0,0,0,0,0,3,0,44
2,24,3,9211,304,0,0,0,0,0,0,0,0,0,3,0,185
2,24,2,9216,305,0,0,0,0,0,0,0,0,0,3,0,98
2,24,3,9217,305,0,0,0,0,0,0,0,0,0,3,0,247
2,24,1,9222,305,0,0,0,0,0,0,0,0,0,3,0,134
2,24,3,9225,306,0,0,0,0,0,0,0,0,0,3,0,86
2,24,1,9227,306,0,0,0,0,0,0,0,0,0,3,0,123
2,24,2,9228,306,0,0,0,0,0,0,0,0,0,3,0,37
2,24,1,9232,307,0,0,0,0,0,0,0,0,0,3,0,206
2,24,3,9233,307,0,0,0,0,0,0,0,0,0,3,0,42
2,24,2,9234,307,0,0,0,0,0,0,0,0,0,3,0,204
2,24,3,9243,308,0,0,0,0,0,0,0,0,0,3,0,96
2,24,1,9244,308,0,0,0,0,0,0,0,0,0,3,0,17
2,24,2,9246,308,0,0,0,0,0,0,0,0,0,3,0,19
2,24,3,9249,309,0,0,0,0,0,0,0,0,0,3,0,74
2,24,2,9250,309,0,0,0,0,0,0,0,0,0,3,0,172
2,24,1,9252,309,0,0,0,0,0,0,0,0,0,3,0,72
2,24,2,9256,310,0,0,0,0,0,0,0,0,0,3,0,126
2,24,3,9257,310,0,0,0,0,0,0,0,0,0,3,0,235
2,24,1,9260,310,0,0,0,0,0,0,0,0,0,3,0,233
2,24,3,9265,311,0,0,0,0,0,0,0,0,0,3,0,151
2,24,1,9267,311,0,0,0,0,0,0,0,0,0,3,0,186
2,24,2,9269,311,0,0,0,0,0,0,0,0,0,3,0,94
2,24,3,9272,312,0,0,0,0,0,0,0,0,0,3,0,35
2,24,1,9273,312,0,0,0,0,0,0,0,0,0,3,0,199
2,24,2,9274,312,0,0,0,0,0,0,0,0,0,3,0,127
2,24,3,9278,313,0,0,0,0,0,0,0,0,0,3,0,144
2,24,2,9279,313,0,0,0,0,0,0,0,0,0,3,0,5
2,24,1,9280,313,0,0,0,0,0,0,0,0,0,3,0,110
2,24,3,9284,314,0,0,0,0,0,0,0,0,0,3,0,188
2,24,1,9285,314,0,0,0,0,0,0,0,0,0,3,0,88
2,24,2,9286,314,0,0,0,0,0,0,0,0,0,3,0,224
2,24,1,9289,315,0,0,0,0,0,0,0,0,0,3,0,83
2,24,3,9290,315,0,0,0,0,0,0,0,0,0,3,0,196
2,24,2,9291,315,0,0,0,0,0,0,0,0,0,3,0,81
2,24,1,9295,316,0,0,0,0,0,0,0,0,0,3,0,52
2,24,3,9296,316,0,0,0,0,0,0,0,0,0,3,0,31
2,24,2,9298,316,0,0,0,0,0,0,0,0,0,3,0,67
2,24,3,9302,317,0,0,0,0,0,0,0,0,0,3,0,172
2,24,1,9303,317,0,0,0,0,0,0,0,0,0,3,0,72
2,24,2,9304,317,0,0,0,0,0,0,0,0,0,3,0,221
2,24,1,9307,318,0,0,0,0,0,0,0,0,0,3,0,15
2,24,2,9308,318,0,0,0,0,0,0,0,0,0,3,0,81
2,24,3,9309,318,0,0,0,0,0,0,0,0,0,3,0,196
2,24,3,9313,319,0,0,0,0,0,0,0,0,0,3,0,123
2,24,2,9314,319,0,0,0,0,0,0,0,0,0,3,0,157
2,24,1,9315,319,0,0,0,0,0,0,0,0,0,3,0,86
2,24,1,9319,320,0,0,0,0,0,0,0,0,0,3,0,120
2,24,3,9320,320,0,0,0,0,0,0,0,0,0,3,0,194
2,24,2,9321,320,0,0,0,0,0,0,0,0,0,3,0,87
2,24,2,9325,321,0,0,0,0,0,0,0,0,0,3,0,151
2,24,1,9326,321,0,0,0,0,0,0,0,0,0,3,0,47
2,24,3,9327,321,0,0,0,0,0,0,0,0,0,3,0,203
2,24,3,9330,322,0,0,0,0,0,0,0,0,0,3,0,167
2,24,2,9331,322,0,0,0,0,0,0,0,0,0,3,0,50
2,24,1,9333,322,0,0,0,0,0,0,0,0,0,3,0,214
2,24,1,9337,323,0,0,0,0,0,0,0,0,0,3,0,221
2,24,3,9338,323,0,0,0,0,0,0,0,0,0,3,0,74
2,24,2,9339,323,0,0,0,0,0,0,0,0,0,3,0,223
2,24,1,9343,324,0,0,0,0,0,0,0,0,0,3,0,186
2,24,2,9344,324,0,0,0,0,0,0,0,0,0,3,0,69
2,24,3,9345,324,0,0,0,0,0,0,0,0,0,3,0,208
2,24,3,9349,325,0,0,0,0,0,0,0,0,0,3,0,16
2,24,1,9350,325,0,0,0,0,0,0,0,0,0,3,0,135
2,24,2,9351,325,0,0,0,0,0,0,0,0,0,3,0,76
2,24,2,9355,326,0,0,0,0,0,0,0,0,0,3,0,11
2,24,1,9356,326,0,0,0,0,0,0,0,0,0,3,0,85
2,24,3,9357,326,0,0,0,0,0,0,0,0,0,3,0,177
2,24,1,9360,327,0,0,0,0,0,0,0,0,0,3,0,207
2,24,3,9361,327,0,0,0,0,0,0,0,0,0,3,0,43
2,24,2,9364,327,0,0,0,0,0,0,0,0,0,3,0,88
2,24,1,9367,328,0,0,0,0,0,0,0,0,0,3,0,37
2,24,2,9369,328,0,0,0,0,0,0,0,0,0,3,0,10
2,24,3,9371,328,0,0,0,0,0,0,0,0,0,3,0,86
2,24,3,9375,329,0,0,0,0,0,0,0,0,0,3,0,150
2,24,2,9376,329,0,0,0,0,0,0,0,0,0,3,0,233
2,24,1,9377,329,0,0,0,0,0,0,0,0,0,3,0,34
2,24,3,9381,330,0,0,0,0,0,0,0,0,0,3,0,240
2,24,1,9383,330,0,0,0,0,0,0,0,0,0,3,0,221
2,24,2,9384,330,0,0,0,0,0,0,0,0,0,3,0,72
2,24,1,9387,331,0,0,0,0,0,0,0,0,0,3,0,214
2,24,3,9388,331,0,0,0,0,0,0,0,0,0,3,0,167
2,24,2,9389,331,0,0,0,0,0,0,0,0,0,3,0,50
2,24,2,9397,332,0,0,0,0,0,0,0,0,0,3,0,154
2,24,3,9398,332,0,0,0,0,0,0,0,0,0,3,0,124
2,24,1,9399,332,0,0,0,0,0,0,0,0,0,3,0,152
2,24,1,9402,333,0,0,0,0,0,0,0,0,0,3,0,41
2,24,2,9403,333,0,0,0,0,0,0,0,0,0,3,0,226
2,24,3,9404,333,0,0,0,0,0,0,0,0,0,3,0,226
2,24,2,9407,334,0,0,0,0,0,0,0,0,0,3,0,110
2,24,3,9408,334,0,0,0,0,0,0,0,0,0,3,0,91
2,24,1,9409,334,0,0,0,0,0,0,0,0,0,3,0,191
2,24,2,9413,335,0,0,0,0,0,0,0,0,0,3,0,14
2,24,1,9414,335,0,0,0,0,0,0,0,0,0,3,0,182
2,24,3,9415,335,0,0,0,0,0,0,0,0,0,3,0,82
2,24,1,9419,336,0,0,0,0,0,0,0,0,0,3,0,138
2,24,3,9420,336,0,0,0,0,0,0,0,0,0,3,0,251
2,24,2,9421,336,0,0,0,0,0,0,0,0,0,3,0,110
2,24,1,9424,337,0,0,0,0,0,0,0,0,0,3,0,63
2,24,3,9425,337,0,0,0,0,0,0,0,0,0,3,0,219
2,24,2,9426,337,0,0,0,0,0,0,0,0,0,3,0,61
2,24,1,9430,338,0,0,0,0,0,0,0,0,0,3,0,192
2,24,3,9431,338,0,0,0,0,0,0,0,0,0,3,0,36
2,24,2,9432,338,0,0,0,0,0,0,0,0,0,3,0,239
2,24,3,9436,339,0,0,0,0,0,0,0,0,0,3,0,0
2,24,1,9438,339,0,0,0,0,0,0,0,0,0,3,0,45
2,24,2,9439,339,0,0,0,0,0,0,0,0,0,3,0,230
2,24,3,9443,340,0,0,0,0,0,0,0,0,0,3,0,162
2,24,1,9444,340,0,0,0,0,0,0,0,0,0,3,0,211
2,24,2,9445,340,0,0,0,0,0,0,0,0,0,3,0,24
2,24,1,9451,341,0,0,0,0,0,0,0,0,0,3,0,17
2,24,3,9451,341,0,0,0,0,0,0,0,0,0,3,0,79
2,24,2,9453,341,0,0,0,0,0,0,0,0,0,3,0,245
2,24,1,9457,342,0,0,0,0,0,0,0,0,0,3,0,82
2,24,2,9458,342,0,0,0,0,0,0,0,0,0,3,0,234
2,24,3,9461,342,0,0,0,0,0,0,0,0,0,3,0,234
2,24,3,9465,343,0,0,0,0,0,0,0,0,0,3,0,225
2,24,1,9466,343,0,0,0,0,0,0,0,0,0,3,0,118
2,24,2,9468,343,0,0,0,0,0,0,0,0,0,3,0,146
2,24,3,9471,344,0,0,0,0,0,0,0,0,0,3,0,177
2,24,1,9472,344,0,0,0,0,0,0,0,0,0,3,0,95
2,24,2,9473,344,0,0,0,0,0,0,0,0,0,3,0,148
2,24,3,9477,345,0,0,0,0,0,0,0,0,0,3,0,123
2,24,2,9478,345,0,0,0,0,0,0,0,0,0,3,0,157
2,24,1,9479,345,0,0,0,0,0,0,0,0,0,3,0,86
2,24,2,9485,346,0,0,0,0,0,0,0,0,0,3,0,245
2,24,1,9486,346,0,0,0,0,0,0,0,0,0,3,0,77
2,24,3,9488,346,0,0,0,0,0,0,0,0,0,3,0,220
2,24,1,9491,347,0,0,0,0,0,0,0,0,0,3,0,109
2,24,3,9492,347,0,0,0,0,0,0,0,0,0,3,0,28
2,24,2,9493,347,0,0,0,0,0,0,0,0,0,3,0,137
2,24,3,9498,348,0,0,0,0,0,0,0,0,0,3,0,176
2,24,1,9499,348,0,0,0,0,0,0,0,0,0,3,0,84
2,24,2,9500,348,0,0,0,0,0,0,0,0,0,3,0,10
2,24,1,9503,349,0,0,0,0,0,0,0,0,0,3,0,148
2,24,3,9504,349,0,0,0,0,0,0,0,0,0,3,0,154
2,24,2,9506,349,0,0,0,0,0,0,0,0,0,3,0,198
2,24,1,9509,350,0,0,0,0,0,0,0,0,0,3,0,242
2,24,3,9510,350,0,0,0,0,0,0,0,0,0,3,0,101
2,24,2,9511,350,0,0,0,0,0,0,0,0,0,3,0,240
2,24,1,9514,351,0,0,0,0,0,0,0,0,0,3,0,48
2,24,2,9515,351,0,0,0,0,0,0,0,0,0,3,0,251
2,24,3,9516,351,0,0,0,0,0,0,0,0,0,3,0,251
2,24,1,9519,352,0,0,0,0,0,0,0,0,0,3,0,27
2,24,3,9520,352,0,0,0,0,0,0,0,0,0,3,0,48
2,24,2,9521,352,0,0,0,0,0,0,0,0,0,3,0,165
2,24,3,9526,353,0,0,0,0,0,0,0,0,0,3,0,131
2,24,1,9527,353,0,0,0,0,0,0,0,0,0,3,0,103
2,24,2,9530,353,0,0,0,0,0,0,0,0,0,3,0,129
2,24,3,9533,354,0,0,0,0,0,0,0,0,0,3,0,235
2,24,2,9534,354,0,0,0,0,0,0,0,0,0,3,0,13
2,24,1,9535,354,0,0,0,0,0,0,0,0,0,3,0,198
2,24,2,9539,355,0,0,0,0,0,0,0,0,0,3,0,66
2,24,1,9540,355,0,0,0,0,0,0,0,0,0,3,0,28
2,24,3,9541,355,0,0,0,0,0,0,0,0,0,3,0,248
2,24,1,9553,356,0,0,0,0,0,0,0,0,0,3,0,35
2,24,3,9554,356,0,0,0,0,0,0,0,0,0,3,0,180
2,24,2,9555,356,0,0,0,0,0,0,0,0,0,3,0,33
2,24,1,9559,357,0,0,0,0,0,0,0,0,0,3,0,144
2,24,3,9560,357,0,0,0,0,0,0,0,0,0,3,0,42
2,24,2,9561,357,0,0,0,0,0,0,0,0,0,3,0,191
2,24,2,9564,358,0,0,0,0,0,0,0,0,0,3,0,137
2,24,3,9565,358,0,0,0,0,0,0,0,0,0,3,0,28
2,24,1,9566,358,0,0,0,0,0,0,0,0,0,3,0,139
2,24,3,9570,359,0,0,0,0,0,0,0,0,0,3,0,106
2,24,1,9571,359,0,0,0,0,0,0,0,0,0,3,0,142
2,24,2,9572,359,0,0,0,0,0,0,0,0,0,3,0,208
2,24,3,9575,360,0,0,0,0,0,0,0,0,0,3,0,243
2,24,1,9576,360,0,0,0,0,0,0,0,0,0,3,0,73
2,24,2,9577,360,0,0,0,0,0,0,0,0,0,3,0,130
2,24,1,9581,361,0,0,0,0,0,0,0,0,0,3,0,51
2,24,2,9582,361,0,0,0,0,0,0,0,0,0,3,0,139
2,24,1,9583,361,0,0,0,0,0,0,0,0,0,3,0,64
2,24,3,9584,361,0,0,0,0,0,0,0,0,0,3,0,107
2,24,3,9588,362,0,0,0,0,0,0,0,0,0,3,0,231
2,24,2,9589,362,0,0,0,0,0,0,0,0,0,3,0,114
2,24,1,9590,362,0,0,0,0,0,0,0,0,0,3,0,202
2,24,1,9596,363,0,0,0,0,0,0,0,0,0,3,0,84
2,24,3,9597,363,0,0,0,0,0,0,0,0,0,3,0,176
2,24,2,9598,363,0,0,0,0,0,0,0,0,0,3,0,86
2,24,2,9602,364,0,0,0,0,0,0,0,0,0,3,0,227
2,24,3,9603,364,0,0,0,0,0,0,0,0,0,3,0,118
2,24,1,9604,364,0,0,0,0,0,0,0,0,0,3,0,7
2,24,2,9608,365,0,0,0,0,0,0,0,0,0,3,0,125
2,24,3,9609,365,0,0,0,0,0,0,0,0,0,3,0,232
2,24,1,9610,365,0,0,0,0,0,0,0,0,0,3,0,127
2,24,3,9613,366,0,0,0,0,0,0,0,0,0,3,0,100
2,24,2,9614,366,0,0,0,0,0,0,0,0,0,3,0,130
2,24,1,9615,366,0,0,0,0,0,0,0,0,0,3,0,73
2,24,3,9619,367,0,0,0,0,0,0,0,0,0,3,0,141
2,24,1,9620,367,0,0,0,0,0,0,0,0,0,3,0,252
2,24,2,9621,367,0,0,0,0,0,0,0,0,0,3,0,55
2,24,3,9624,368,0,0,0,0,0,0,0,0,0,3,0,36
2,24,1,9625,368,0,0,0,0,0,0,0,0,0,3,0,192
2,24,2,9626,368,0,0,0,0,0,0,0,0,0,3,0,120
2,24,3,9630,369,0,0,0,0,0,0,0,0,0,3,0,151
2,24,1,9631,369,0,0,0,0,0,0,0,0,0,3,0,115
2,24,2,9632,369,0,0,0,0,0,0,0,0,0,3,0,82
2,24,1,9635,370,0,0,0,0,0,0,0,0,0,3,0,128
2,24,2,9636,370,0,0,0,0,0,0,0,0,0,3,0,222
2,24,3,9637,370,0,0,0,0,0,0,0,0,0,3,0,75
2,24,2,9641,371,0,0,0,0,0,0,0,0,0,3,0,111
2,24,1,9643,371,0,0,0,0,0,0,0,0,0,3,0,109
2,24,3,9644,371,0,0,0,0,0,0,0,0,0,3,0,28
2,24,2,9647,372,0,0,0,0,0,0,0,0,0,3,0,8
2,24,3,9648,372,0,0,0,0,0,0,0,0,0,3,0,82
2,24,1,9649,372,0,0,0,0,0,0,0,0,0,3,0,182
2,24,2,9653,373,0,0,0,0,0,0,0,0,0,3,0,7
2,24,3,9654,373,0,0,0,0,0,0,0,0,0,3,0,225
2,24,1,9655,373,0,0,0,0,0,0,0,0,0,3,0,5
2,24,2,9656,373,0,0,0,0,0,0,0,0,0,3,0,144
2,24,2,9659,374,0,0,0,0,0,0,0,0,0,3,0,51
2,24,3,9660,374,0,0,0,0,0,0,0,0,0,3,0,51
2,24,1,9661,374,0,0,0,0,0,0,0,0,0,3,0,215
2,24,2,9666,375,0,0,0,0,0,0,0,0,0,3,0,154
2,24,1,9667,375,0,0,0,0,0,0,0,0,0,3,0,81
2,24,3,9668,375,0,0,0,0,0,0,0,0,0,3,0,32
2,24,2,9672,376,0,0,0,0,0,0,0,0,0,3,0,231
2,24,3,9673,376,0,0,0,0,0,0,0,0,0,3,0,114
2,24,1,9674,376,0,0,0,0,0,0,0,0,0,3,0,229
2,24,1,9678,377,0,0,0,0,0,0,0,0,0,3,0,37
2,24,3,9679,377,0,0,0,0,0,0,0,0,0,3,0,193
2,24,2,9680,377,0,0,0,0,0,0,0,0,0,3,0,155
2,24,3,9683,378,0,0,0,0,0,0,0,0,0,3,0,23
2,24,1,9684,378,0,0,0,0,0,0,0,0,0,3,0,102
2,24,2,9686,378,0,0,0,0,0,0,0,0,0,3,0,100
2,24,3,9689,379,0,0,0,0,0,0,0,0,0,3,0,137
2,24,1,9691,379,0,0,0,0,0,0,0,0,0,3,0,164
2,24,2,9694,379,0,0,0,0,0,0,0,0,0,3,0,137
2,24,1,9698,380,0,0,0,0,0,0,0,0,0,3,0,147
2,24,3,9699,380,0,0,0,0,0,0,0,0,0,3,0,119
2,24,2,9700,380,0,0,0,0,0,0,0,0,0,3,0,119
2,24,2,9704,381,0,0,0,0,0,0,0,0,0,3,0,124
2,24,3,9705,381,0,0,0,0,0,0,0,0,0,3,0,233
2,24,1,9706,381,0,0,0,0,0,0,0,0,0,3,0,126
2,24,1,9709,382,0,0,0,0,0,0,0,0,0,3,0,59
2,24,2,9710,382,0,0,0,0,0,0,0,0,0,3,0,131
2,24,3,9712,382,0,0,0,0,0,0,0,0,0,3,0,99
2,24,2,9713,382,0,0,0,0,0,0,0,0,0,3,0,246
2,24,3,9716,383,0,0,0,0,0,0,0,0,0,3,0,163
2,24,2,9720,383,0,0,0,0,0,0,0,0,0,3,0,161
2,24,1,9721,383,0,0,0,0,0,0,0,0,0,3,0,106
2,24,2,9724,384,0,0,0,0,0,0,0,0,0,3,0,246
2,24,3,9725,384,0,0,0,0,0,0,0,0,0,3,0,99
2,24,2,9726,384,0,0,0,0,0,0,0,0,0,3,0,133
2,24,1,9727,384,0,0,0,0,0,0,0,0,0,3,0,78
2,24,3,9731,385,0,0,0,0,0,0,0,0,0,3,0,51
2,24,1,9732,385,0,0,0,0,0,0,0,0,0,3,0,66
2,24,2,9733,385,0,0,0,0,0,0,0,0,0,3,0,137
2,24,2,9737,386,0,0,0,0,0,0,0,0,0,3,0,206
2,24,3,9738,386,0,0,0,0,0,0,0,0,0,3,0,40
2,24,1,9743,386,0,0,0,0,0,0,0,0,0,3,0,42
2,24,1,9746,387,0,0,0,0,0,0,0,0,0,3,0,10
2,24,3,9747,387,0,0,0,0,0,0,0,0,0,3,0,238
2,24,2,9748,387,0,0,0,0,0,0,0,0,0,3,0,238
2,24,1,9752,388,0,0,0,0,0,0,0,0,0,3,0,64
2,24,3,9753,388,0,0,0,0,0,0,0,0,0,3,0,164
2,24,2,9754,388,0,0,0,0,0,0,0,0,0,3,0,66
2,24,3,9758,389,0,0,0,0,0,0,0,0,0,3,0,173
2,24,1,9759,389,0,0,0,0,0,0,0,0,0,3,0,73
2,24,2,9760,389,0,0,0,0,0,0,0,0,0,3,0,104
2,24,3,9763,390,0,0,0,0,0,0,0,0,0,3,0,228
2,24,2,9764,390,0,0,0,0,0,0,0,0,0,3,0,228
2,24,1,9766,390,0,0,0,0,0,0,0,0,0,3,0,230
2,24,1,9770,391,0,0,0,0,0,0,0,0,0,3,0,237
2,24,3,9771,391,0,0,0,0,0,0,0,0,0,3,0,9
2,24,2,9772,391,0,0,0,0,0,0,0,0,0,3,0,9
2,24,3,9775,392,0,0,0,0,0,0,0,0,0,3,0,42
2,24,1,9776,392,0,0,0,0,0,0,0,0,0,3,0,1
2,24,2,9778,392,0,0,0,0,0,0,0,0,0,3,0,3
2,24,2,9782,393,0,0,0,0,0,0,0,0,0,3,0,195
2,24,1,9783,393,0,0,0,0,0,0,0,0,0,3,0,8
2,24,3,9784,393,0,0,0,0,0,0,0,0,0,3,0,178
2,24,1,9789,394,0,0,0,0,0,0,0,0,0,3,0,218
2,24,3,9790,394,0,0,0,0,0,0,0,0,0,3,0,77
2,24,2,9791,394,0,0,0,0,0,0,0,0,0,3,0,216
2,24,3,9794,395,0,0,0,0,0,0,0,0,0,3,0,184
2,24,1,9795,395,0,0,0,0,0,0,0,0,0,3,0,92
2,24,2,9800,395,0,0,0,0,0,0,0,0,0,3,0,47
2,24,3,9806,396,0,0,0,0,0,0,0,0,0,3,0,103
2,24,1,9807,396,0,0,0,0,0,0,0,0,0,3,0,131
2,24,2,9809,396,0,0,0,0,0,0,0,0,0,3,0,61
2,24,2,9812,397,0,0,0,0,0,0,0,0,0,3,0,71
2,24,3,9813,397,0,0,0,0,0,0,0,0,0,3,0,210
2,24,1,9815,397,0,0,0,0,0,0,0,0,0,3,0,255
2,24,2,9819,398,0,0,0,0,0,0,0,0,0,3,0,201
2,24,3,9820,398,0,0,0,0,0,0,0,0,0,3,0,201
2,24,1,9821,398,0,0,0,0,0,0,0,0,0,3,0,45
2,24,3,9825,399,0,0,0,0,0,0,0,0,0,3,0,204
2,24,1,9826,399,0,0,0,0,0,0,0,0,0,3,0,91
2,24,2,9827,399,0,0,0,0,0,0,0,0,0,3,0,144
2,24,1,9830,400,0,0,0,0,0,0,0,0,0,3,0,22
2,24,2,9831,400,0,0,0,0,0,0,0,0,0,3,0,221
2,24,3,9835,400,0,0,0,0,0,0,0,0,0,3,0,223
2,24,3,9838,401,0,0,0,0,0,0,0,0,0,3,0,165
2,24,1,9839,401,0,0,0,0,0,0,0,0,0,3,0,65
2,24,2,9841,401,0,0,0,0,0,0,0,0,0,3,0,255
2,24,1,9847,402,0,0,0,0,0,0,0,0,0,3,0,113
2,24,3,9848,402,0,0,0,0,0,0,0,0,0,3,0,203
2,24,2,9849,402,0,0,0,0,0,0,0,0,0,3,0,94
2,24,1,9850,402,0,0,0,0,0,0,0,0,0,3,0,230
2,24,3,9852,403,0,0,0,0,0,0,0,0,0,3,0,11
2,24,2,9853,403,0,0,0,0,0,0,0,0,0,3,0,158
2,24,1,9854,403,0,0,0,0,0,0,0,0,0,3,0,38
2,24,3,9858,404,0,0,0,0,0,0,0,0,0,3,0,205
2,24,2,9859,404,0,0,0,0,0,0,0,0,0,3,0,88
2,24,1,9860,404,0,0,0,0,0,0,0,0,0,3,0,6
2,24,3,9865,405,0,0,0,0,0,0,0,0,0,3,0,233
2,24,2,9866,405,0,0,0,0,0,0,0,0,0,3,0,15
2,24,1,9867,405,0,0,0,0,0,0,0,0,0,3,0,196
2,24,2,9870,406,0,0,0,0,0,0,0,0,0,3,0,131
2,24,1,9871,406,0,0,0,0,0,0,0,0,0,3,0,72
2,24,3,9873,406,0,0,0,0,0,0,0,0,0,3,0,217
2,24,2,9876,407,0,0,0,0,0,0,0,0,0,3,0,140
2,24,3,9877,407,0,0,0,0,0,0,0,0,0,3,0,25
2,24,1,9879,407,0,0,0,0,0,0,0,0,0,3,0,52
2,24,3,9883,408,0,0,0,0,0,0,0,0,0,3,0,130
2,24,2,9884,408,0,0,0,0,0,0,0,0,0,3,0,130
2,24,1,9885,408,0,0,0,0,0,0,0,0,0,3,0,73
2,24,1,9888,409,0,0,0,0,0,0,0,0,0,3,0,76
2,24,3,9889,409,0,0,0,0,0,0,0,0,0,3,0,168
2,24,2,9890,409,0,0,0,0,0,0,0,0,0,3,0,78
2,24,2,9895,410,0,0,0,0,0,0,0,0,0,3,0,120
2,24,3,9896,410,0,0,0,0,0,0,0,0,0,3,0,179
2,24,1,9898,410,0,0,0,0,0,0,0,0,0,3,0,158
2,24,1,9901,411,0,0,0,0,0,0,0,0,0,3,0,151
2,24,3,9902,411,0,0,0,0,0,0,0,0,0,3,0,0
2,24,2,9903,411,0,0,0,0,0,0,0,0,0,3,0,149
2,24,3,9906,412,0,0,0,0,0,0,0,0,0,3,0,78
2,24,1,9908,412,0,0,0,0,0,0,0,0,0,3,0,133
2,24,2,9910,412,0,0,0,0,0,0,0,0,0,3,0,135
2,24,3,9914,413,0,0,0,0,0,0,0,0,0,3,0,163
2,24,2,9915,413,0,0,0,0,0,0,0,0,0,3,0,54
2,24,1,9916,413,0,0,0,0,0,0,0,0,0,3,0,104
2,24,3,9922,414,0,0,0,0,0,0,0,0,0,3,0,252
2,24,2,9923,414,0,0,0,0,0,0,0,0,0,3,0,105
2,24,1,9924,414,0,0,0,0,0,0,0,0,0,3,0,55
2,24,1,9928,415,0,0,0,0,0,0,0,0,0,3,0,60
2,24,3,9929,415,0,0,0,0,0,0,0,0,0,3,0,216
2,24,2,9930,415,0,0,0,0,0,0,0,0,0,3,0,62
2,24,1,9934,416,0,0,0,0,0,0,0,0,0,3,0,222
2,24,2,9935,416,0,0,0,0,0,0,0,0,0,3,0,21
2,24,3,9936,416,0,0,0,0,0,0,0,0,0,3,0,79
2,24,2,9939,417,0,0,0,0,0,0,0,0,0,3,0,143
2,24,3,9940,417,0,0,0,0,0,0,0,0,0,3,0,143
2,24,1,9947,417,0,0,0,0,0,0,0,0,0,3,0,53
2,24,2,9951,418,0,0,0,0,0,0,0,0,0,3,0,200
2,24,3,9952,418,0,0,0,0,0,0,0,0,0,3,0,183
2,24,1,9953,418,0,0,0,0,0,0,0,0,0,3,0,83
2,24,3,9956,419,0,0,0,0,0,0,0,0,0,3,0,119
2,24,1,9957,419,0,0,0,0,0,0,0,0,0,3,0,147
2,24,2,9963,419,0,0,0,0,0,0,0,0,0,3,0,188
2,24,2,9966,420,0,0,0,0,0,0,0,0,0,3,0,18
2,24,1,9967,420,0,0,0,0,0,0,0,0,0,3,0,217
2,24,3,9968,420,0,0,0,0,0,0,0,0,0,3,0,242
2,24,1,9972,421,0,0,0,0,0,0,0,0,0,3,0,108
2,24,2,9973,421,0,0,0,0,0,0,0,0,0,3,0,167
2,24,3,9974,421,0,0,0,0,0,0,0,0,0,3,0,65
2,24,1,9978,422,0,0,0,0,0,0,0,0,0,3,0,88
2,24,3,9979,422,0,0,0,0,0,0,0,0,0,3,0,188
2,24,2,9980,422,0,0,0,0,0,0,0,0,0,3,0,188
2,24,1,9984,423,0,0,0,0,0,0,0,0,0,3,0,146
2,24,3,9985,423,0,0,0,0,0,0,0,0,0,3,0,118
2,24,2,9987,423,0,0,0,0,0,0,0,0,0,3,0,42
2,24,1,9991,424,0,0,0,0,0,0,0,0,0,3,0,120
2,24,3,9992,424,0,0,0,0,0,0,0,0,0,3,0,194
2,24,2,9993,424,0,0,0,0,0,0,0,0,0,3,0,87
2,24,1,9996,425,0,0,0,0,0,0,0,0,0,3,0,92
2,24,3,9997,425,0,0,0,0,0,0,0,0,0,3,0,184
2,24,2,9998,425,0,0,0,0,0,0,0,0,0,3,0,94
2,24,3,10002,426,0,0,0,0,0,0,0,0,0,3,0,167
2,24,2,10003,426,0,0,0,0,0,0,0,0,0,3,0,50
2,24,1,10004,426,0,0,0,0,0,0,0,0,0,3,0,108
2,24,2,10008,427,0,0,0,0,0,0,0,0,0,3,0,22
2,24,1,10010,427,0,0,0,0,0,0,0,0,0,3,0,20
2,24,3,10012,427,0,0,0,0,0,0,0,0,0,3,0,223
2,24,2,10016,428,0,0,0,0,0,0,0,0,0,3,0,155
2,24,1,10017,428,0,0,0,0,0,0,0,0,0,3,0,80
2,24,3,10018,428,0,0,0,0,0,0,0,0,0,3,0,199
2,24,3,10022,429,0,0,0,0,0,0,0,0,0,3,0,7
2,24,2,10023,429,0,0,0,0,0,0,0,0,0,3,0,146
2,24,1,10027,429,0,0,0,0,0,0,0,0,0,3,0,206
2,24,3,10031,430,0,0,0,0,0,0,0,0,0,3,0,28
2,24,2,10032,430,0,0,0,0,0,0,0,0,0,3,0,70
2,24,1,10033,430,0,0,0,0,0,0,0,0,0,3,0,141
2,24,2,10037,431,0,0,0,0,0,0,0,0,0,3,0,60
2,24,3,10038,431,0,0,0,0,0,0,0,0,0,3,0,218
2,24,1,10039,431,0,0,0,0,0,0,0,0,0,3,0,62
2,24,3,10043,432,0,0,0,0,0,0,0,0,0,3,0,230
2,24,2,10044,432,0,0,0,0,0,0,0,0,0,3,0,230
2,24,1,10046,432,0,0,0,0,0,0,0,0,0,3,0,228
2,24,3,10050,433,0,0,0,0,0,0,0,0,0,3,0,79
2,24,2,10051,433,0,0,0,0,0,0,0,0,0,3,0,218
2,24,1,10055,433,0,0,0,0,0,0,0,0,0,3,0,77
2,24,1,10058,434,0,0,0,0,0,0,0,0,0,3,0,176
2,24,2,10059,434,0,0,0,0,0,0,0,0,0,3,0,123
2,24,3,10060,434,0,0,0,0,0,0,0,0,0,3,0,123
2,24,3,10064,435,0,0,0,0,0,0,0,0,0,3,0,225
2,24,2,10065,435,0,0,0,0,0,0,0,0,0,3,0,116
2,24,1,10066,435,0,0,0,0,0,0,0,0,0,3,0,204
2,24,1,10070,436,0,0,0,0,0,0,0,0,0,3,0,216
2,24,3,10071,436,0,0,0,0,0,0,0,0,0,3,0,60
2,24,2,10072,436,0,0,0,0,0,0,0,0,0,3,0,247
2,24,3,10076,437,0,0,0,0,0,0,0,0,0,3,0,24
2,24,2,10077,437,0,0,0,0,0,0,0,0,0,3,0,141
2,24,1,10079,437,0,0,0,0,0,0,0,0,0,3,0,143
2,24,1,10082,438,0,0,0,0,0,0,0,0,0,3,0,198
2,24,3,10083,438,0,0,0,0,0,0,0,0,0,3,0,34
2,24,2,10086,438,0,0,0,0,0,0,0,0,0,3,0,81
2,24,3,10090,439,0,0,0,0,0,0,0,0,0,3,0,117
2,24,2,10091,439,0,0,0,0,0,0,0,0,0,3,0,224
2,24,1,10092,439,0,0,0,0,0,0,0,0,0,3,0,190
2,24,2,10096,440,0,0,0,0,0,0,0,0,0,3,0,182
2,24,1,10097,440,0,0,0,0,0,0,0,0,0,3,0,125
2,24,3,10098,440,0,0,0,0,0,0,0,0,0,3,0,234
2,24,2,10101,441,0,0,0,0,0,0,0,0,0,3,0,204
2,24,3,10102,441,0,0,0,0,0,0,0,0,0,3,0,42
2,24,1,10104,441,0,0,0,0,0,0,0,0,0,3,0,42
2,24,2,10107,442,0,0,0,0,0,0,0,0,0,3,0,248
2,24,3,10108,442,0,0,0,0,0,0,0,0,0,3,0,248
2,24,1,10109,442,0,0,0,0,0,0,0,0,0,3,0,28
2,24,1,10114,443,0,0,0,0,0,0,0,0,0,3,0,180
2,24,3,10115,443,0,0,0,0,0,0,0,0,0,3,0,80
2,24,2,10116,443,0,0,0,0,0,0,0,0,0,3,0,80
2,24,2,10120,444,0,0,0,0,0,0,0,0,0,3,0,143
2,24,1,10122,444,0,0,0,0,0,0,0,0,0,3,0,141
2,24,3,10123,444,0,0,0,0,0,0,0,0,0,3,0,105
2,24,3,10127,445,0,0,0,0,0,0,0,0,0,3,0,169
2,24,1,10128,445,0,0,0,0,0,0,0,0,0,3,0,130
2,24,2,10129,445,0,0,0,0,0,0,0,0,0,3,0,73
2,24,2,10133,446,0,0,0,0,0,0,0,0,0,3,0,197
2,24,3,10134,446,0,0,0,0,0,0,0,0,0,3,0,35
2,24,1,10135,446,0,0,0,0,0,0,0,0,0,3,0,199
2,24,3,10138,447,0,0,0,0,0,0,0,0,0,3,0,40
2,24,2,10140,447,0,0,0,0,0,0,0,0,0,3,0,146
2,24,1,10142,447,0,0,0,0,0,0,0,0,0,3,0,144
2,24,1,10146,448,0,0,0,0,0,0,0,0,0,3,0,193
2,24,2,10150,448,0,0,0,0,0,0,0,0,0,3,0,86
2,24,3,10151,448,0,0,0,0,0,0,0,0,0,3,0,195
2,24,1,10155,449,0,0,0,0,0,0,0,0,0,3,0,150
2,24,2,10156,449,0,0,0,0,0,0,0,0,0,3,0,200
2,24,3,10157,449,0,0,0,0,0,0,0,0,0,3,0,93
2,24,2,10161,450,0,0,0,0,0,0,0,0,0,3,0,164
2,24,1,10162,450,0,0,0,0,0,0,0,0,0,3,0,28
2,24,3,10163,450,0,0,0,0,0,0,0,0,0,3,0,248
2,24,3,10168,451,0,0,0,0,0,0,0,0,0,3,0,220
2,24,1,10169,451,0,0,0,0,0,0,0,0,0,3,0,56
2,24,2,10170,451,0,0,0,0,0,0,0,0,0,3,0,128
2,24,1,10173,452,0,0,0,0,0,0,0,0,0,3,0,44
2,24,2,10174,452,0,0,0,0,0,0,0,0,0,3,0,148
2,24,3,10175,452,0,0,0,0,0,0,0,0,0,3,0,1
2,24,2,10179,453,0,0,0,0,0,0,0,0,0,3,0,219
2,24,1,10180,453,0,0,0,0,0,0,0,0,0,3,0,133
2,24,3,10181,453,0,0,0,0,0,0,0,0,0,3,0,97
2,24,1,10184,454,0,0,0,0,0,0,0,0,0,3,0,194
2,24,3,10185,454,0,0,0,0,0,0,0,0,0,3,0,38
2,24,2,10186,454,0,0,0,0,0,0,0,0,0,3,0,192
2,24,2,10191,455,0,0,0,0,0,0,0,0,0,3,0,186
2,24,3,10192,455,0,0,0,0,0,0,0,0,0,3,0,224
2,24,1,10193,455,0,0,0,0,0,0,0,0,0,3,0,4
2,24,1,10198,456,0,0,0,0,0,0,0,0,0,3,0,238
2,24,3,10199,456,0,0,0,0,0,0,0,0,0,3,0,10
2,24,2,10201,456,0,0,0,0,0,0,0,0,0,3,0,123
2,24,2,10204,457,0,0,0,0,0,0,0,0,0,3,0,1
2,24,1,10207,457,0,0,0,0,0,0,0,0,0,3,0,185
2,24,3,10208,457,0,0,0,0,0,0,0,0,0,3,0,183
2,24,2,10211,458,0,0,0,0,0,0,0,0,0,3,0,59
2,24,1,10212,458,0,0,0,0,0,0,0,0,0,3,0,101
2,24,3,10213,458,0,0,0,0,0,0,0,0,0,3,0,129
2,24,2,10217,459,0,0,0,0,0,0,0,0,0,3,0,165
2,24,3,10218,459,0,0,0,0,0,0,0,0,0,3,0,67
2,24,1,10220,459,0,0,0,0,0,0,0,0,0,3,0,136
2,24,3,10224,460,0,0,0,0,0,0,0,0,0,3,0,152
2,24,2,10225,460,0,0,0,0,0,0,0,0,0,3,0,13
2,24,1,10228,460,0,0,0,0,0,0,0,0,0,3,0,32
2,24,1,10232,461,0,0,0,0,0,0,0,0,0,3,0,43
2,24,3,10233,461,0,0,0,0,0,0,0,0,0,3,0,207
2,24,2,10235,461,0,0,0,0,0,0,0,0,0,3,0,147
2,24,3,10247,462,0,0,0,0,0,0,0,0,0,3,0,220
2,24,1,10248,462,0,0,0,0,0,0,0,0,0,3,0,102
2,24,2,10249,462,0,0,0,0,0,0,0,0,0,3,0,173
2,24,2,10252,463,0,0,0,0,0,0,0,0,0,3,0,215
2,24,3,10253,463,0,0,0,0,0,0,0,0,0,3,0,66
2,24,1,10254,463,0,0,0,0,0,0,0,0,0,3,0,213
2,24,3,10258,464,0,0,0,0,0,0,0,0,0,3,0,156
2,24,2,10259,464,0,0,0,0,0,0,0,0,0,3,0,9
2,24,1,10260,464,0,0,0,0,0,0,0,0,0,3,0,87
2,24,1,10265,465,0,0,0,0,0,0,0,0,0,3,0,230
2,24,2,10270,465,0,0,0,0,0,0,0,0,0,3,0,184
2,24,3,10271,465,0,0,0,0,0,0,0,0,0,3,0,45
2,24,3,10275,466,0,0,0,0,0,0,0,0,0,3,0,222
2,24,1,10276,466,0,0,0,0,0,0,0,0,0,3,0,175
2,24,2,10277,466,0,0,0,0,0,0,0,0,0,3,0,100
2,24,3,10281,467,0,0,0,0,0,0,0,0,0,3,0,64
2,24,2,10282,467,0,0,0,0,0,0,0,0,0,3,0,166
2,24,1,10283,467,0,0,0,0,0,0,0,0,0,3,0,109
2,24,1,10287,468,0,0,0,0,0,0,0,0,0,3,0,121
2,24,3,10288,468,0,0,0,0,0,0,0,0,0,3,0,82
2,24,2,10289,468,0,0,0,0,0,0,0,0,0,3,0,199
2,24,1,10293,469,0,0,0,0,0,0,0,0,0,3,0,118
2,24,2,10294,469,0,0,0,0,0,0,0,0,0,3,0,206
2,24,3,10295,469,0,0,0,0,0,0,0,0,0,3,0,91
2,24,2,10298,470,0,0,0,0,0,0,0,0,0,3,0,137
2,24,3,10299,470,0,0,0,0,0,0,0,0,0,3,0,28
2,24,2,10300,470,0,0,0,0,0,0,0,0,0,3,0,28
2,24,1,10301,470,0,0,0,0,0,0,0,0,0,3,0,215
2,24,2,10306,471,0,0,0,0,0,0,0,0,0,3,0,154
2,24,1,10307,471,0,0,0,0,0,0,0,0,0,3,0,81
2,24,3,10308,471,0,0,0,0,0,0,0,0,0,3,0,32
2,24,1,10311,472,0,0,0,0,0,0,0,0,0,3,0,114
2,24,3,10312,472,0,0,0,0,0,0,0,0,0,3,0,200
2,24,2,10313,472,0,0,0,0,0,0,0,0,0,3,0,93
2,24,1,10321,473,0,0,0,0,0,0,0,0,0,3,0,80
2,24,3,10322,473,0,0,0,0,0,0,0,0,0,3,0,199
2,24,2,10323,473,0,0,0,0,0,0,0,0,0,3,0,82
2,24,1,10327,474,0,0,0,0,0,0,0,0,0,3,0,175
2,24,2,10328,474,0,0,0,0,0,0,0,0,0,3,0,58
2,24,3,10331,474,0,0,0,0,0,0,0,0,0,3,0,220
2,24,3,10336,475,0,0,0,0,0,0,0,0,0,3,0,76
2,24,2,10337,475,0,0,0,0,0,0,0,0,0,3,0,217
2,24,1,10338,475,0,0,0,0,0,0,0,0,0,3,0,97
2,24,3,10342,476,0,0,0,0,0,0,0,0,0,3,0,43
2,24,2,10343,476,0,0,0,0,0,0,0,0,0,3,0,190
2,24,1,10345,476,0,0,0,0,0,0,0,0,0,3,0,145
2,24,1,10349,477,0,0,0,0,0,0,0,0,0,3,0,81
2,24,3,10350,477,0,0,0,0,0,0,0,0,0,3,0,198
2,24,2,10355,477,0,0,0,0,0,0,0,0,0,3,0,239
2,24,3,10359,478,0,0,0,0,0,0,0,0,0,3,0,76
2,24,2,10360,478,0,0,0,0,0,0,0,0,0,3,0,135
2,24,1,10361,478,0,0,0,0,0,0,0,0,0,3,0,76
2,24,1,10365,479,0,0,0,0,0,0,0,0,0,3,0,140
2,24,2,10366,479,0,0,0,0,0,0,0,0,0,3,0,52
2,24,3,10367,479,0,0,0,0,0,0,0,0,0,3,0,161
2,24,3,10371,480,0,0,0,0,0,0,0,0,0,3,0,145
2,24,2,10373,480,0,0,0,0,0,0,0,0,0,3,0,43
2,24,1,10374,480,0,0,0,0,0,0,0,0,0,3,0,147
2,24,3,10377,481,0,0,0,0,0,0,0,0,0,3,0,15
2,24,2,10378,481,0,0,0,0,0,0,0,0,0,3,0,233
2,24,1,10383,481,0,0,0,0,0,0,0,0,0,3,0,196
2,24,3,10386,482,0,0,0,0,0,0,0,0,0,3,0,246
2,24,1,10387,482,0,0,0,0,0,0,0,0,0,3,0,18
2,24,2,10388,482,0,0,0,0,0,0,0,0,0,3,0,76
2,24,3,10392,483,0,0,0,0,0,0,0,0,0,3,0,104
2,24,1,10393,483,0,0,0,0,0,0,0,0,0,3,0,140
2,24,2,10394,483,0,0,0,0,0,0,0,0,0,3,0,52
2,24,3,10397,484,0,0,0,0,0,0,0,0,0,3,0,198
2,24,2,10398,484,0,0,0,0,0,0,0,0,0,3,0,32
2,24,1,10399,484,0,0,0,0,0,0,0,0,0,3,0,235
2,24,2,10402,485,0,0,0,0,0,0,0,0,0,3,0,159
2,24,3,10403,485,0,0,0,0,0,0,0,0,0,3,0,10
2,24,1,10405,485,0,0,0,0,0,0,0,0,0,3,0,193
2,24,2,10408,486,0,0,0,0,0,0,0,0,0,3,0,77
2,24,1,10409,486,0,0,0,0,0,0,0,0,0,3,0,134
2,24,3,10410,486,0,0,0,0,0,0,0,0,0,3,0,17
2,24,2,10415,487,0,0,0,0,0,0,0,0,0,3,0,68
2,24,3,10416,487,0,0,0,0,0,0,0,0,0,3,0,30
2,24,2,10417,487,0,0,0,0,0,0,0,0,0,3,0,139
2,24,1,10418,487,0,0,0,0,0,0,0,0,0,3,0,51
2,24,1,10422,488,0,0,0,0,0,0,0,0,0,3,0,16
2,24,3,10423,488,0,0,0,0,0,0,0,0,0,3,0,244
2,24,2,10424,488,0,0,0,0,0,0,0,0,0,3,0,63
2,24,3,10427,489,0,0,0,0,0,0,0,0,0,3,0,255
2,24,1,10428,489,0,0,0,0,0,0,0,0,0,3,0,142
2,24,2,10429,489,0,0,0,0,0,0,0,0,0,3,0,69
2,24,3,10434,490,0,0,0,0,0,0,0,0,0,3,0,26
2,24,2,10435,490,0,0,0,0,0,0,0,0,0,3,0,143
2,24,1,10439,490,0,0,0,0,0,0,0,0,0,3,0,24
2,24,2,10442,491,0,0,0,0,0,0,0,0,0,3,0,216
2,24,3,10445,491,0,0,0,0,0,0,0,0,0,3,0,216
2,24,1,10447,491,0,0,0,0,0,0,0,0,0,3,0,245
2,24,2,10452,492,0,0,0,0,0,0,0,0,0,3,0,229
2,24,1,10453,492,0,0,0,0,0,0,0,0,0,3,0,46
2,24,3,10454,492,0,0,0,0,0,0,0,0,0,3,0,185
2,24,2,10460,493,0,0,0,0,0,0,0,0,0,3,0,8
2,24,1,10461,493,0,0,0,0,0,0,0,0,0,3,0,195
2,24,3,10462,493,0,0,0,0,0,0,0,0,0,3,0,84
2,24,1,10465,494,0,0,0,0,0,0,0,0,0,3,0,48
2,24,3,10466,494,0,0,0,0,0,0,0,0,0,3,0,167
2,24,2,10467,494,0,0,0,0,0,0,0,0,0,3,0,50
2,24,3,10470,495,0,0,0,0,0,0,0,0,0,3,0,103
2,24,2,10471,495,0,0,0,0,0,0,0,0,0,3,0,242
2,24,1,10472,495,0,0,0,0,0,0,0,0,0,3,0,103
2,24,1,10476,496,0,0,0,0,0,0,0,0,0,3,0,42
2,24,3,10477,496,0,0,0,0,0,0,0,0,0,3,0,206
2,24,2,10478,496,0,0,0,0,0,0,0,0,0,3,0,40
2,24,1,10482,497,0,0,0,0,0,0,0,0,0,3,0,195
2,24,2,10483,497,0,0,0,0,0,0,0,0,0,3,0,8
2,24,3,10486,497,0,0,0,0,0,0,0,0,0,3,0,123
2,24,1,10490,498,0,0,0,0,0,0,0,0,0,3,0,98
2,24,3,10491,498,0,0,0,0,0,0,0,0,0,3,0,134
2,24,2,10492,498,0,0,0,0,0,0,0,0,0,3,0,134
2,24,3,10496,499,0,0,0,0,0,0,0,0,0,3,0,246
2,24,1,10497,499,0,0,0,0,0,0,0,0,0,3,0,18
2,24,2,10498,499,0,0,0,0,0,0,0,0,0,3,0,170
2,24,3,10502,500,0,0,0,0,0,0,0,0,0,3,0,145
2,24,1,10503,500,0,0,0,0,0,0,0,0,0,3,0,117
2,24,2,10505,500,0,0,0,0,0,0,0,0,0,3,0,90
2,24,2,10510,501,0,0,0,0,0,0,0,0,0,3,0,83
2,24,3,10511,501,0,0,0,0,0,0,0,0,0,3,0,198
2,24,1,10512,501,0,0,0,0,0,0,0,0,0,3,0,237
2,24,2,10516,502,0,0,0,0,0,0,0,0,0,3,0,16
2,24,1,10517,502,0,0,0,0,0,0,0,0,0,3,0,219
2,24,3,10518,502,0.248535156,1.785949707,-0.181213379,52.90985107,-37.9486084,-56.12945557,-0.279174805,-0.106445313,0.200561523,11,0,100
2,24,3,10522,503,0.248535156,1.785949707,-0.181213379,52.90985107,-37.9486084,-56.12945557,-0.279174805,-0.106445313,0.200561523,11,0,111
2,24,2,10523,503,0.386779785,1.661743164,0.447814941,13.74053955,-59.95941162,-15.70129395,1.239013672,-3.492431641,0.004516602,11,0,44
2,24,1,10524,503,0.233459473,-1.613891602,0.256835938,-19.1116333,-6.828308105,-3.890991211,0.577270508,-2.353881836,0.004516602,11,0,29
2,24,3,10528,504,0.248535156,1.785949707,-0.181213379,52.90985107,-37.9486084,-56.12945557,-0.279174805,-0.106445313,0.200561523,11,0,166
2,24,1,10529,504,0.233459473,-1.613891602,0.256835938,-19.1116333,-6.828308105,-3.890991211,0.577270508,-2.353881836,0.004516602,11,0,251
2,24,2,10530,504,0.386779785,1.661743164,0.447814941,13.74053955,-59.95941162,-15.70129395,1.239013672,-3.492431641,0.004516602,11,0,44
2,24,3,10534,505,0.248535156,1.785949707,-0.181213379,52.90985107,-37.9486084,-56.12945557,-0.274291992,-0.061645508,0.204345703,11,0,183
2,24,1,10535,505,0.233459473,-1.613891602,0.256835938,-19.1116333,-6.828308105,-3.890991211,0.577270508,-2.353881836,0.004516602,11,0,72
2,24,2,10536,505,0.386779785,1.661743164,0.447814941,13.74053955,-59.95941162,-15.70129395,1.239013672,-3.492431641,0.004516602,11,0,178
2,24,1,10542,506,0.233459473,-1.613891602,0.256835938,-19.1116333,-6.828308105,-3.890991211,0.577270508,-2.353881836,0.004516602,11,0,83
2,24,3,10543,506,0.248535156,1.785949707,-0.181213379,52.90985107,-37.9486084,-56.12945557,-0.274291992,-0.061645508,0.204345703,11,0,172
2,24,2,10544,506,0.386779785,1.661743164,0.447814941,13.74053955,-59.95941162,-15.70129395,1.239013672,-3.492431641,0.004516602,11,0,130
2,24,1,10549,507,0.233459473,-1.613891602,0.256835938,-19.1116333,-6.828308105,-3.890991211,0.577270508,-2.350830078,0.004516602,11,0,159
2,24,2,10550,507,0.426086426,1.094177246,-0.38269043,81.86340332,-27.21405029,84.57183838,1.239013672,-3.489379883,0.004516602,11,0,218
2,24,3,10555,507,-0.361206055,1.786865234,-0.258789063,71.32720947,-28.93066406,-67.90161133,-0.264526367,-0.072021484,0.218994141,11,0,249
2,24,3,10559,508,-0.361206055,1.786865234,-0.258789063,71.32720947,-28.93066406,-67.90161133,-0.264526367,-0.072021484,0.218994141,11,0,237
2,24,1,10560,508,0.233459473,-1.613891602,0.256835938,-19.1116333,-6.828308105,-3.890991211,0.577270508,-2.350830078,0.004516602,11,0,207
2,24,2,10562,508,0.426086426,1.094177246,-0.38269043,81.86340332,-27.21405029,84.57183838,1.239013672,-3.489379883,0.004516602,11,0,48
2,24,2,10567,509,0.426086426,1.094177246,-0.38269043,81.86340332,-27.21405029,84.57183838,1.239013672,-3.489379883,0.004516602,11,0,74
2,24,1,10568,509,0.233459473,-1.613891602,0.256835938,-19.1116333,-6.828308105,-3.890991211,0.577270508,-2.350830078,0.004516602,11,0,34
2,24,3,10571,509,-0.361206055,1.786865234,-0.258789063,71.32720947,-28.93066406,-67.90161133,-0.253540039,-0.038085938,0.222412109,11,0,56
2,24,3,10574,510,-0.361206055,1.786865234,-0.258789063,71.32720947,-28.93066406,-67.90161133,-0.253540039,-0.038085938,0.222412109,11,0,14
2,24,1,10575,510,0.245056152,-0.868896484,0.272033691,-0.08392334,-1.655578613,-17.0135498,0.577270508,-2.34777832,0.004516602,11,0,167
2,24,2,10576,510,0.426086426,1.094177246,-0.38269043,81.86340332,-27.21405029,84.57183838,1.239013672,-3.486328125,0.004516602,11,0,122
2,24,1,10580,511,0.245056152,-0.868896484,0.272033691,-0.08392334,-1.655578613,-17.0135498,0.577270508,-2.34777832,0.004516602,11,0,18
2,24,3,10581,511,-0.361206055,1.786865234,-0.258789063,71.32720947,-28.93066406,-67.90161133,-0.242797852,-0.027832031,0.214355469,11,0,161
2,24,2,10582,511,0.426086426,1.094177246,-0.38269043,81.86340332,-27.21405029,84.57183838,1.239013672,-3.486328125,0.004516602,11,0,201
2,24,1,10586,512,0.245056152,-0.868896484,0.272033691,-0.08392334,-1.655578613,-17.0135498,0.577270508,-2.34777832,0.004516602,11,0,49
2,24,3,10588,512,-0.361206055,1.786865234,-0.258789063,71.32720947,-28.93066406,-67.90161133,-0.242797852,-0.027832031,0.214355469,11,0,173
2,24,2,10589,512,0.426086426,1.094177246,-0.38269043,81.86340332,-27.21405029,84.57183838,1.239013672,-3.486328125,0.004516602,11,0,182
2,24,2,10596,513,0.426086426,1.094177246,-0.38269043,81.86340332,-27.21405029,84.57183838,1.239013672,-3.486328125,0.004516602,11,0,85
2,24,1,10597,513,0.245056152,-0.868896484,0.272033691,-0.08392334,-1.655578613,-17.0135498,0.577270508,-2.34777832,0.004516602,11,0,71
2,24,3,10644,514,0.370605469,0.943969727,0.138671875,76.30157471,-38.71917725,-71.39587402,-0.220581055,-0.015136719,0.206298828,11,0,95
2,24,1,10645,514,0.245056152,-0.868896484,0.272033691,-0.08392334,-1.655578613,-17.0135498,0.577270508,-2.341430664,0.004516602,11,0,84
2,24,2,10646,514,0.090637207,1.115722656,0.00402832,72.02911377,-2.647399902,48.84338379,1.239013672,-3.479980469,0.004516602,11,0,209
2,24,1,10650,515,0.229248047,-1.011962891,0.194213867,-2.632141113,18.95904541,-19.33288574,0.577270508,-2.338256836,0.004516602,11,0,46
2,24,3,10651,515,0.370605469,0.943969727,0.138671875,76.30157471,-38.71917725,-71.39587402,-0.227416992,-0.018554688,0.201293945,11,0,125
2,24,2,10652,515,0.090637207,1.115722656,0.00402832,72.02911377,-2.647399902,48.84338379,1.239013672,-3.476928711,0.004516602,11,0,183
2,24,1,10655,516,0.229248047,-1.011962891,0.194213867,-2.632141113,18.95904541,-19.33288574,0.577270508,-2.338256836,0.004516602,11,0,128
2,24,3,10656,516,0.370605469,0.943969727,0.138671875,76.30157471,-38.71917725,-71.39587402,-0.227416992,-0.018554688,0.201293945,11,0,57
2,24,2,10658,516,0.090637207,1.115722656,0.00402832,72.02911377,-2.647399902,48.84338379,1.239013672,-3.476928711,0.004516602,11,0,175
2,24,1,10663,517,0.229248047,-1.011962891,0.194213867,-2.632141113,18.95904541,-19.33288574,0.577270508,-2.338256836,0.004516602,11,0,217
2,24,3,10664,517,0.370605469,0.943969727,0.138671875,76.30157471,-38.71917725,-71.39587402,-0.227416992,-0.018554688,0.201293945,11,0,212
2,24,2,10665,517,0.090637207,1.115722656,0.00402832,72.02911377,-2.647399902,48.84338379,1.239013672,-3.476928711,0.004516602,11,0,139
2,24,3,10668,518,0.370605469,0.943969727,0.138671875,76.30157471,-38.71917725,-71.39587402,-0.231323242,-0.024291992,0.192016602,11,0,83
2,24,2,10669,518,0.090637207,1.115722656,0.00402832,72.02911377,-2.647399902,48.84338379,1.239013672,-3.476928711,0.004516602,11,0,7
2,24,1,10670,518,0.229248047,-1.011962891,0.194213867,-2.632141113,18.95904541,-19.33288574,0.577270508,-2.338256836,0.004516602,11,0,194
2,24,1,10675,519,0.229248047,-1.011962891,0.194213867,-2.632141113,18.95904541,-19.33288574,0.577270508,-2.338256836,0.004516602,11,0,226
2,24,2,10676,519,0.090637207,1.115722656,0.00402832,72.02911377,-2.647399902,48.84338379,1.239013672,-3.473754883,0.004516602,11,0,145
2,24,3,10677,519,0.370605469,0.943969727,0.138671875,76.30157471,-38.71917725,-71.39587402,-0.231323242,-0.024291992,0.192016602,11,0,149
2,24,3,10682,520,0.370605469,0.943969727,0.138671875,76.30157471,-38.71917725,-71.39587402,-0.231323242,-0.024291992,0.192016602,11,0,180
2,24,2,10683,520,0.090637207,1.115722656,0.00402832,72.02911377,-2.647399902,48.84338379,1.239013672,-3.473754883,0.004516602,11,0,176
2,24,1,10684,520,0.229248047,-1.011962891,0.194213867,-2.632141113,18.95904541,-19.33288574,0.577270508,-2.335083008,0.004516602,11,0,147
2,24,2,10689,521,0.090637207,1.115722656,0.00402832,72.02911377,-2.647399902,48.84338379,1.239013672,-3.473754883,0.004516602,11,0,208
2,24,3,10692,521,0.370605469,0.943969727,0.138671875,76.30157471,-38.71917725,-71.39587402,-0.241821289,-0.032958984,0.191650391,11,0,118
2,24,1,10694,521,0.229248047,-1.011962891,0.194213867,-2.632141113,18.95904541,-19.33288574,0.577270508,-2.335083008,0.004516602,11,0,243
2,24,2,10698,522,0.090637207,1.115722656,0.00402832,72.02911377,-2.647399902,48.84338379,1.239013672,-3.473754883,0.004516602,11,0,184
2,24,1,10699,522,0.229248047,-1.011962891,0.194213867,-2.632141113,18.95904541,-19.33288574,0.577270508,-2.335083008,0.004516602,11,0,14
2,24,3,10701,522,0.370605469,0.943969727,0.138671875,76.30157471,-38.71917725,-71.39587402,-0.241821289,-0.032958984,0.191650391,11,0,109
2,24,1,10702,522,0.229248047,-1.011962891,0.194213867,-2.632141113,18.95904541,-19.33288574,0.577270508,-2.335083008,0.004516602,11,0,82
2,24,1,10705,523,0.229248047,-1.011962891,0.194213867,-2.632141113,18.95904541,-19.33288574,0.577270508,-2.33190918,0.004516602,11,0,204
2,24,3,10706,523,0.004394531,0.587585449,-0.017700195,6.126403809,-58.3190918,26.19171143,-0.254516602,-0.043212891,0.181518555,11,0,114
2,24,2,10707,523,0.090637207,1.115722656,0.00402832,72.02911377,-2.647399902,48.84338379,1.239013672,-3.470703125,0.004516602,11,0,154
2,24,3,10712,524,0.004394531,0.587585449,-0.017700195,6.126403809,-58.3190918,26.19171143,-0.254516602,-0.043212891,0.181518555,11,0,56
2,24,2,10714,524,0.090637207,1.115722656,0.00402832,72.02911377,-2.647399902,48.84338379,1.239013672,-3.470703125,0.004516602,11,0,25
2,24,1,10717,524,0.229248047,-1.011962891,0.194213867,-2.632141113,18.95904541,-19.33288574,0.577270508,-2.33190918,0.004516602,11,0,19
2,24,3,10722,525,0.004394531,0.587585449,-0.017700195,6.126403809,-58.3190918,26.19171143,-0.275024414,-0.0546875,0.165283203,11,0,69
2,24,2,10723,525,0.090637207,1.115722656,0.00402832,72.02911377,-2.647399902,48.84338379,1.239013672,-3.470703125,0.004516602,11,0,250
2,24,1,10725,525,0.229248047,-1.011962891,0.194213867,-2.632141113,18.95904541,-19.33288574,0.577270508,-2.33190918,0.004516602,11,0,74
2,24,3,10735,526,0.004394531,0.587585449,-0.017700195,6.126403809,-58.3190918,26.19171143,-0.275024414,-0.0546875,0.165283203,11,0,184
2,24,1,10736,526,0.055725098,-0.818908691,0.171386719,26.222229,44.06738281,-14.46533203,0.577270508,-2.328857422,0.004516602,11,0,72
2,24,2,10737,526,0.149536133,1.010009766,-0.113830566,36.07177734,-9.834289551,22.26257324,1.239013672,-3.467529297,0.004516602,11,0,252
2,24,2,10746,527,0.149536133,1.010009766,-0.113830566,36.07177734,-9.834289551,22.26257324,1.239013672,-3.467529297,0.004516602,11,0,216
2,24,1,10747,527,0.055725098,-0.818908691,0.171386719,26.222229,44.06738281,-14.46533203,0.577270508,-2.328857422,0.004516602,11,0,108
2,24,3,10749,527,0.004394531,0.587585449,-0.017700195,6.126403809,-58.3190918,26.19171143,-0.291992188,-0.067138672,0.16394043,11,0,51
2,24,1,10753,528,0.055725098,-0.818908691,0.171386719,26.222229,44.06738281,-14.46533203,0.577270508,-2.325805664,0.004516602,11,0,144
2,24,3,10754,528,0.004394531,0.587585449,-0.017700195,6.126403809,-58.3190918,26.19171143,-0.291992188,-0.067138672,0.16394043,11,0,84
2,24,2,10755,528,0.149536133,1.010009766,-0.113830566,36.07177734,-9.834289551,22.26257324,1.239013672,-3.464355469,0.004516602,11,0,168
2,24,1,10758,529,0.055725098,-0.818908691,0.171386719,26.222229,44.06738281,-14.46533203,0.577270508,-2.325805664,0.004516602,11,0,153
2,24,3,10759,529,0.004394531,0.587585449,-0.017700195,6.126403809,-58.3190918,26.19171143,-0.314208984,-0.081176758,0.153320313,11,0,82
2,24,2,10760,529,0.149536133,1.010009766,-0.113830566,36.07177734,-9.834289551,22.26257324,1.239013672,-3.464355469,0.004516602,11,0,140
2,24,3,10764,530,0.004394531,0.587585449,-0.017700195,6.126403809,-58.3190918,26.19171143,-0.314208984,-0.081176758,0.153320313,11,0,58
2,24,1,10765,530,0.055725098,-0.818908691,0.171386719,26.222229,44.06738281,-14.46533203,0.577270508,-2.325805664,0.004516602,11,0,241
2,24,2,10766,530,0.149536133,1.010009766,-0.113830566,36.07177734,-9.834289551,22.26257324,1.239013672,-3.464355469,0.004516602,11,0,115
2,24,3,10770,531,0.004394531,0.587585449,-0.017700195,6.126403809,-58.3190918,26.19171143,-0.314208984,-0.081176758,0.153320313,11,0,211
2,24,2,10771,531,0.149536133,1.010009766,-0.113830566,36.07177734,-9.834289551,22.26257324,1.239013672,-3.464355469,0.004516602,11,0,83
2,24,1,10772,531,0.055725098,-0.818908691,0.171386719,26.222229,44.06738281,-14.46533203,0.577270508,-2.325805664,0.004516602,11,0,55
2,24,2,10775,532,0.149536133,1.010009766,-0.113830566,36.07177734,-9.834289551,22.26257324,1.239013672,-3.464355469,0.004516602,11,0,71
2,24,3,10776,532,0.004394531,0.587585449,-0.017700195,6.126403809,-58.3190918,26.19171143,-0.325683594,-0.086425781,0.134765625,11,0,181
2,24,1,10777,532,0.055725098,-0.818908691,0.171386719,26.222229,44.06738281,-14.46533203,0.577270508,-2.325805664,0.004516602,11,0,82
2,24,3,10781,533,0.004394531,0.587585449,-0.017700195,6.126403809,-58.3190918,26.19171143,-0.325683594,-0.086425781,0.134765625,11,0,207
2,24,1,10782,533,0.055725098,-0.818908691,0.171386719,26.222229,44.06738281,-14.46533203,0.577270508,-2.322753906,0.004516602,11,0,110
2,24,2,10783,533,0.149536133,1.010009766,-0.113830566,36.07177734,-9.834289551,22.26257324,1.239013672,-3.461303711,0.004516602,11,0,82
2,24,3,10786,534,0.004394531,0.587585449,-0.017700195,6.126403809,-58.3190918,26.19171143,-0.325683594,-0.086425781,0.134765625,11,0,245
2,24,2,10787,534,0.149536133,1.010009766,-0.113830566,36.07177734,-9.834289551,22.26257324,1.239013672,-3.461303711,0.004516602,11,0,161
2,24,1,10788,534,0.055725098,-0.818908691,0.171386719,26.222229,44.06738281,-14.46533203,0.577270508,-2.322753906,0.004516602,11,0,8
2,24,1,10792,535,0.055725098,-0.818908691,0.171386719,26.222229,44.06738281,-14.46533203,0.577270508,-2.322753906,0.004516602,11,0,3
2,24,2,10793,535,0.149536133,1.010009766,-0.113830566,36.07177734,-9.834289551,22.26257324,1.239013672,-3.461303711,0.004516602,11,0,63
2,24,3,10794,535,-0.15032959,0.925598145,-0.095397949,-86.97509766,36.07940674,138.1072998,-0.354614258,-0.098022461,0.107910156,11,0,212
2,24,1,10800,536,0.055725098,-0.818908691,0.171386719,26.222229,44.06738281,-14.46533203,0.577270508,-2.322753906,0.004516602,11,0,156
2,24,3,10801,536,-0.15032959,0.925598145,-0.095397949,-86.97509766,36.07940674,138.1072998,-0.354614258,-0.098022461,0.107910156,11,0,130
2,24,2,10803,536,0.149536133,1.010009766,-0.113830566,36.07177734,-9.834289551,22.26257324,1.239013672,-3.461303711,0.004516602,11,0,211
2,24,3,10809,537,-0.15032959,0.925598145,-0.095397949,-86.97509766,36.07940674,138.1072998,-0.375610352,-0.115112305,0.091186523,11,0,171
2,24,1,10810,537,0.108703613,-0.911743164,0.17791748,35.55297852,29.82330322,-6.546020508,0.577270508,-2.319580078,0.004516602,11,0,93
2,24,2,10811,537,0.188476563,0.987854004,-0.13494873,30.09796143,-13.06915283,26.12304688,1.239013672,-3.458129883,0.004516602,11,0,114
2,24,3,10817,538,-0.15032959,0.925598145,-0.095397949,-86.97509766,36.07940674,138.1072998,-0.375610352,-0.115112305,0.091186523,11,0,244
2,24,2,10818,538,0.188476563,0.987854004,-0.13494873,30.09796143,-13.06915283,26.12304688,1.239013672,-3.458129883,0.004516602,11,0,151
2,24,1,10819,538,0.108703613,-0.911743164,0.17791748,35.55297852,29.82330322,-6.546020508,0.577270508,-2.319580078,0.004516602,11,0,184
2,24,3,10823,539,-0.15032959,0.925598145,-0.095397949,-86.97509766,36.07940674,138.1072998,-0.389160156,-0.10546875,0.071533203,11,0,68
2,24,1,10824,539,0.108703613,-0.911743164,0.17791748,35.55297852,29.82330322,-6.546020508,0.577270508,-2.319580078,0.004516602,11,0,156
2,24,2,10826,539,0.188476563,0.987854004,-0.13494873,30.09796143,-13.06915283,26.12304688,1.239013672,-3.458129883,0.004516602,11,0,122
2,24,1,10829,540,0.108703613,-0.911743164,0.17791748,35.55297852,29.82330322,-6.546020508,0.577270508,-2.31640625,0.004516602,11,0,255
2,24,3,10830,540,-0.15032959,0.925598145,-0.095397949,-86.97509766,36.07940674,138.1072998,-0.389160156,-0.10546875,0.071533203,11,0,199
2,24,2,10832,540,0.188476563,0.987854004,-0.13494873,30.09796143,-13.06915283,26.12304688,1.239013672,-3.455200195,0.004516602,11,0,75
2,24,2,10835,541,0.188476563,0.987854004,-0.13494873,30.09796143,-13.06915283,26.12304688,1.239013672,-3.455200195,0.004516602,11,0,164
2,24,3,10836,541,-0.15032959,0.925598145,-0.095397949,-86.97509766,36.07940674,138.1072998,-0.389160156,-0.10546875,0.071533203,11,0,200
2,24,1,10837,541,0.108703613,-0.911743164,0.17791748,35.55297852,29.82330322,-6.546020508,0.577270508,-2.31640625,0.004516602,11,0,131
2,24,1,10841,542,0.108703613,-0.911743164,0.17791748,35.55297852,29.82330322,-6.546020508,0.577270508,-2.31640625,0.004516602,11,0,196
2,24,2,10842,542,0.188476563,0.987854004,-0.13494873,30.09796143,-13.06915283,26.12304688,1.239013672,-3.455200195,0.004516602,11,0,191
2,24,3,10843,542,-0.15032959,0.925598145,-0.095397949,-86.97509766,36.07940674,138.1072998,-0.39453125,-0.10559082,0.06262207,11,0,187
2,24,2,10846,543,0.188476563,0.987854004,-0.13494873,30.09796143,-13.06915283,26.12304688,1.239013672,-3.455200195,0.004516602,11,0,127
2,24,3,10847,543,-0.15032959,0.925598145,-0.095397949,-86.97509766,36.07940674,138.1072998,-0.39453125,-0.10559082,0.06262207,11,0,123
2,24,1,10848,543,0.108703613,-0.911743164,0.17791748,35.55297852,29.82330322,-6.546020508,0.577270508,-2.31640625,0.004516602,11,0,39
2,24,3,10852,544,-0.15032959,0.925598145,-0.095397949,-86.97509766,36.07940674,138.1072998,-0.39453125,-0.10559082,0.06262207,11,0,186
2,24,2,10853,544,0.188476563,0.987854004,-0.13494873,30.09796143,-13.06915283,26.12304688,1.239013672,-3.452026367,0.004516602,11,0,233
2,24,1,10856,544,0.108703613,-0.911743164,0.17791748,35.55297852,29.82330322,-6.546020508,0.577270508,-2.313476563,0.004516602,11,0,74
2,24,1,10861,545,0.108703613,-0.911743164,0.17791748,35.55297852,29.82330322,-6.546020508,0.577270508,-2.313476563,0.004516602,11,0,48
2,24,3,10863,545,-0.528442383,1.964904785,-0.503662109,-177.0858765,57.02209473,181.5643311,-0.410522461,-0.116821289,0.038452148,11,0,55
2,24,2,10864,545,0.188476563,0.987854004,-0.13494873,30.09796143,-13.06915283,26.12304688,1.239013672,-3.452026367,0.004516602,11,0,2
2,24,3,10869,546,-0.528442383,1.964904785,-0.503662109,-177.0858765,57.02209473,181.5643311,-0.410522461,-0.116821289,0.038452148,11,0,116
2,24,1,10870,546,0.108703613,-0.911743164,0.17791748,35.55297852,29.82330322,-6.546020508,0.577270508,-2.313476563,0.004516602,11,0,201
2,24,2,10872,546,0.188476563,0.987854004,-0.13494873,30.09796143,-13.06915283,26.12304688,1.239013672,-3.452026367,0.004516602,11,0,163
2,24,2,10876,547,0.188476563,0.987854004,-0.13494873,30.09796143,-13.06915283,26.12304688,1.239013672,-3.452026367,0.004516602,11,0,99
2,24,1,10877,547,0.108703613,-0.911743164,0.17791748,35.55297852,29.82330322,-6.546020508,0.577270508,-2.313476563,0.004516602,11,0,237
2,24,3,10878,547,-0.528442383,1.964904785,-0.503662109,-177.0858765,57.02209473,181.5643311,-0.420288086,-0.128662109,0.032836914,11,0,177
2,24,1,10882,548,0.015014648,-0.929931641,0.059936523,24.58953857,14.73999023,0.495910645,0.577270508,-2.310424805,0.004516602,11,0,55
2,24,3,10883,548,-0.528442383,1.964904785,-0.503662109,-177.0858765,57.02209473,181.5643311,-0.420288086,-0.128662109,0.032836914,11,0,190
2,24,2,10884,548,0.280151367,0.962646484,-0.176635742,32.46307373,-10.597229,34.83581543,1.239013672,-3.448974609,0.004516602,11,0,76
2,24,3,10888,549,-0.528442383,1.964904785,-0.503662109,-177.0858765,57.02209473,181.5643311,-0.420288086,-0.128662109,0.032836914,11,0,154
2,24,2,10889,549,0.280151367,0.962646484,-0.176635742,32.46307373,-10.597229,34.83581543,1.239013672,-3.448974609,0.004516602,11,0,253
2,24,1,10891,549,0.015014648,-0.929931641,0.059936523,24.58953857,14.73999023,0.495910645,0.577270508,-2.310424805,0.004516602,11,0,96
2,24,3,10895,550,-0.528442383,1.964904785,-0.503662109,-177.0858765,57.02209473,181.5643311,-0.428100586,-0.103393555,0.016113281,11,0,250
2,24,1,10896,550,0.015014648,-0.929931641,0.059936523,24.58953857,14.73999023,0.495910645,0.577270508,-2.310424805,0.004516602,11,0,153
2,24,2,10897,550,0.280151367,0.962646484,-0.176635742,32.46307373,-10.597229,34.83581543,1.239013672,-3.448974609,0.004516602,11,0,205
2,24,3,10901,551,-0.528442383,1.964904785,-0.503662109,-177.0858765,57.02209473,181.5643311,-0.428100586,-0.103393555,0.016113281,11,0,245
2,24,1,10902,551,0.015014648,-0.929931641,0.059936523,24.58953857,14.73999023,0.495910645,0.577270508,-2.310424805,0.004516602,11,0,42
2,24,2,10903,551,0.280151367,0.962646484,-0.176635742,32.46307373,-10.597229,34.83581543,1.239013672,-3.448974609,0.004516602,11,0,126
2,24,2,10908,552,0.280151367,0.962646484,-0.176635742,32.46307373,-10.597229,34.83581543,1.239013672,-3.445800781,0.004516602,11,0,158
2,24,1,10909,552,0.015014648,-0.929931641,0.059936523,24.58953857,14.73999023,0.495910645,0.577270508,-2.307373047,0.004516602,11,0,124
2,24,3,10910,552,-0.528442383,1.964904785,-0.503662109,-177.0858765,57.02209473,181.5643311,-0.428100586,-0.103393555,0.016113281,11,0,50
2,24,1,10917,553,0.015014648,-0.929931641,0.059936523,24.58953857,14.73999023,0.495910645,0.577270508,-2.307373047,0.004516602,11,0,37
2,24,2,10919,553,0.280151367,0.962646484,-0.176635742,32.46307373,-10.597229,34.83581543,1.239013672,-3.445800781,0.004516602,11,0,14
2,24,3,10920,553,-0.528442383,1.964904785,-0.503662109,-177.0858765,57.02209473,181.5643311,-0.438964844,-0.130737305,0.010620117,11,0,173
2,24,1,10924,554,0.015014648,-0.929931641,0.059936523,24.58953857,14.73999023,0.495910645,0.577270508,-2.307373047,0.004516602,11,0,62
2,24,2,10925,554,0.280151367,0.962646484,-0.176635742,32.46307373,-10.597229,34.83581543,1.239013672,-3.445800781,0.004516602,11,0,220
2,24,3,10927,554,-0.528442383,1.964904785,-0.503662109,-177.0858765,57.02209473,181.5643311,-0.438964844,-0.130737305,0.010620117,11,0,232
2,24,3,10930,555,-0.528442383,1.964904785,-0.503662109,-177.0858765,57.02209473,181.5643311,-0.44543457,-0.100830078,-0.004760742,11,0,15
2,24,2,10932,555,0.280151367,0.962646484,-0.176635742,32.46307373,-10.597229,34.83581543,1.239013672,-3.442626953,0.004516602,11,0,74
2,24,1,10934,555,0.015014648,-0.929931641,0.059936523,24.58953857,14.73999023,0.495910645,0.577270508,-2.304321289,0.004516602,11,0,26
2,24,3,10937,556,-0.528442383,1.964904785,-0.503662109,-177.0858765,57.02209473,181.5643311,-0.44543457,-0.100830078,-0.004760742,11,0,255
2,24,2,10938,556,0.280151367,0.962646484,-0.176635742,32.46307373,-10.597229,34.83581543,1.239013672,-3.442626953,0.004516602,11,0,230
2,24,1,10939,556,0.015014648,-0.929931641,0.059936523,24.58953857,14.73999023,0.495910645,0.577270508,-2.304321289,0.004516602,11,0,127
2,24,3,10943,557,-0.694030762,0.59967041,-1.629821777,-191.0095215,11.63482666,148.8189697,-0.452026367,-0.127563477,-0.016601563,11,0,194
2,24,1,10944,557,0.015014648,-0.929931641,0.059936523,24.58953857,14.73999023,0.495910645,0.577270508,-2.304321289,0.004516602,11,0,165
2,24,2,10946,557,0.280151367,0.962646484,-0.176635742,32.46307373,-10.597229,34.83581543,1.239013672,-3.442626953,0.004516602,11,0,245
2,24,1,10949,558,0.015014648,-0.929931641,0.059936523,24.58953857,14.73999023,0.495910645,0.577270508,-2.304321289,0.004516602,11,0,147
2,24,3,10950,558,-0.694030762,0.59967041,-1.629821777,-191.0095215,11.63482666,148.8189697,-0.452026367,-0.127563477,-0.016601563,11,0,39
2,24,2,10951,558,0.280151367,0.962646484,-0.176635742,32.46307373,-10.597229,34.83581543,1.239013672,-3.442626953,0.004516602,11,0,195
2,24,1,10955,559,0.073120117,-0.860351563,0.122009277,28.06854248,-14.61029053,1.358032227,0.577270508,-2.301269531,0.004516602,11,0,135
2,24,3,10956,559,-0.694030762,0.59967041,-1.629821777,-191.0095215,11.63482666,148.8189697,-0.452026367,-0.127563477,-0.016601563,11,0,185
2,24,2,10957,559,0.247558594,1.037658691,-0.167114258,34.78240967,2.578735352,41.58782959,1.239013672,-3.439575195,0.004516602,11,0,219
2,24,1,10965,560,0.073120117,-0.860351563,0.122009277,28.06854248,-14.61029053,1.358032227,0.577270508,-2.301269531,0.004516602,11,0,227
2,24,2,10966,560,0.247558594,1.037658691,-0.167114258,34.78240967,2.578735352,41.58782959,1.239013672,-3.439575195,0.004516602,11,0,227
2,24,3,10967,560,-0.694030762,0.59967041,-1.629821777,-191.0095215,11.63482666,148.8189697,-0.450073242,-0.103149414,-0.012817383,11,0,142
2,24,1,10971,561,0.073120117,-0.860351563,0.122009277,28.06854248,-14.61029053,1.358032227,0.577270508,-2.301269531,0.004516602,11,0,155
2,24,3,10972,561,-0.694030762,0.59967041,-1.629821777,-191.0095215,11.63482666,148.8189697,-0.450073242,-0.103149414,-0.012817383,11,0,170
2,24,2,10974,561,0.247558594,1.037658691,-0.167114258,34.78240967,2.578735352,41.58782959,1.239013672,-3.439575195,0.004516602,11,0,14
2,24,3,10977,562,-0.694030762,0.59967041,-1.629821777,-191.0095215,11.63482666,148.8189697,-0.450073242,-0.103149414,-0.012817383,11,0,227
2,24,1,10978,562,0.073120117,-0.860351563,0.122009277,28.06854248,-14.61029053,1.358032227,0.577270508,-2.301269531,0.004516602,11,0,52
2,24,2,10979,562,0.247558594,1.037658691,-0.167114258,34.78240967,2.578735352,41.58782959,1.239013672,-3.439575195,0.004516602,11,0,71
2,24,1,10983,563,0.073120117,-0.860351563,0.122009277,28.06854248,-14.61029053,1.358032227,0.577270508,-2.298095703,0.004516602,11,0,104
2,24,3,10984,563,-0.694030762,0.59967041,-1.629821777,-191.0095215,11.63482666,148.8189697,-0.455444336,-0.102294922,-0.018432617,11,0,99
2,24,2,10985,563,0.247558594,1.037658691,-0.167114258,34.78240967,2.578735352,41.58782959,1.239013672,-3.436523438,0.004516602,11,0,1
2,24,1,10988,564,0.073120117,-0.860351563,0.122009277,28.06854248,-14.61029053,1.358032227,0.577270508,-2.298095703,0.004516602,11,0,152
2,24,2,10989,564,0.247558594,1.037658691,-0.167114258,34.78240967,2.578735352,41.58782959,1.239013672,-3.436523438,0.004516602,11,0,21
2,24,3,10990,564,-0.694030762,0.59967041,-1.629821777,-191.0095215,11.63482666,148.8189697,-0.455444336,-0.102294922,-0.018432617,11,0,4
2,24,1,10993,565,0.073120117,-0.860351563,0.122009277,28.06854248,-14.61029053,1.358032227,0.577270508,-2.298095703,0.004516602,11,0,184
2,24,3,10994,565,-0.694030762,0.59967041,-1.629821777,-191.0095215,11.63482666,148.8189697,-0.455444336,-0.102294922,-0.018432617,11,0,158
2,24,2,10995,565,0.247558594,1.037658691,-0.167114258,34.78240967,2.578735352,41.58782959,1.239013672,-3.436523438,0.004516602,11,0,252
2,24,3,10998,566,-0.694030762,0.59967041,-1.629821777,-191.0095215,11.63482666,148.8189697,-0.450683594,-0.109619141,-0.007568359,11,0,232
2,24,2,10999,566,0.247558594,1.037658691,-0.167114258,34.78240967,2.578735352,41.58782959,1.239013672,-3.436523438,0.004516602,11,0,112
2,24,1,11000,566,0.073120117,-0.860351563,0.122009277,28.06854248,-14.61029053,1.358032227,0.577270508,-2.298095703,0.004516602,11,0,163
2,24,2,11004,567,0.247558594,1.037658691,-0.167114258,34.78240967,2.578735352,41.58782959,1.239013672,-3.43347168,0.004516602,11,0,9
2,24,3,11005,567,-0.694030762,0.59967041,-1.629821777,-191.0095215,11.63482666,148.8189697,-0.450683594,-0.109619141,-0.007568359,11,0,204
2,24,1,11006,567,0.073120117,-0.860351563,0.122009277,28.06854248,-14.61029053,1.358032227,0.577270508,-2.294921875,0.004516602,11,0,71
2,24,3,11010,568,-0.694030762,0.59967041,-1.629821777,-191.0095215,11.63482666,148.8189697,-0.450683594,-0.109619141,-0.007568359,11,0,185
2,24,2,11011,568,0.247558594,1.037658691,-0.167114258,34.78240967,2.578735352,41.58782959,1.239013672,-3.43347168,0.004516602,11,0,124
2,24,1,11014,568,0.073120117,-0.860351563,0.122009277,28.06854248,-14.61029053,1.358032227,0.577270508,-2.294921875,0.004516602,11,0,29
2,24,2,11017,569,0.247558594,1.037658691,-0.167114258,34.78240967,2.578735352,41.58782959,1.239013672,-3.43347168,0.004516602,11,0,226
2,24,3,11018,569,0.165344238,1.387268066,0.289611816,-191.0095215,11.63482666,148.8189697,-0.438476563,-0.096313477,0.00390625,11,0,7
2,24,1,11019,569,0.073120117,-0.860351563,0.122009277,28.06854248,-14.61029053,1.358032227,0.577270508,-2.294921875,0.004516602,11,0,172
2,24,2,11023,570,0.247558594,1.037658691,-0.167114258,34.78240967,2.578735352,41.58782959,1.239013672,-3.43347168,0.004516602,11,0,29
2,24,1,11024,570,0.073120117,-0.860351563,0.122009277,28.06854248,-14.61029053,1.358032227,0.577270508,-2.294921875,0.004516602,11,0,85
2,24,3,11025,570,0.165344238,1.387268066,0.289611816,-191.0095215,11.63482666,148.8189697,-0.438476563,-0.096313477,0.00390625,11,0,254
2,24,2,11026,570,0.247558594,1.037658691,-0.167114258,34.78240967,2.578735352,41.58782959,1.239013672,-3.43347168,0.004516602,11,0,27
2,24,1,11032,571,0.141052246,-0.983642578,0.047668457,11.2991333,-27.80151367,2.296447754,0.577270508,-2.291748047,0.004516602,11,0,61
2,24,2,11033,571,0.418334961,1.210144043,-0.168823242,42.89245605,3.18145752,58.76159668,1.239013672,-3.430297852,0.004516602,11,0,244
2,24,3,11035,571,0.164428711,1.387268066,0.289611816,-46.79870605,94.60449219,39.77203369,-0.438842773,-0.095092773,0.011230469,11,0,124
2,24,3,11038,572,0.164428711,1.387268066,0.289611816,-46.79870605,94.60449219,39.77203369,-0.438842773,-0.095092773,0.011230469,11,0,210
2,24,1,11039,572,0.141052246,-0.983642578,0.047668457,11.2991333,-27.80151367,2.296447754,0.577270508,-2.291748047,0.004516602,11,0,224
2,24,2,11041,572,0.418334961,1.210144043,-0.168823242,42.89245605,3.18145752,58.76159668,1.239013672,-3.430297852,0.004516602,11,0,121
2,24,3,11045,573,0.164428711,1.387268066,0.289611816,-46.79870605,94.60449219,39.77203369,-0.434448242,-0.112426758,0.019287109,11,0,91
2,24,2,11046,573,0.418334961,1.210144043,-0.168823242,42.89245605,3.18145752,58.76159668,1.239013672,-3.430297852,0.004516602,11,0,112
2,24,1,11047,573,0.141052246,-0.983642578,0.047668457,11.2991333,-27.80151367,2.296447754,0.577270508,-2.291748047,0.004516602,11,0,185
2,24,2,11051,574,0.418334961,1.210144043,-0.168823242,42.89245605,3.18145752,58.76159668,1.239013672,-3.430297852,0.004516602,11,0,141
2,24,3,11054,574,0.164428711,1.387268066,0.289611816,-46.79870605,94.60449219,39.77203369,-0.434448242,-0.112426758,0.019287109,11,0,51
2,24,1,11055,574,0.141052246,-0.983642578,0.047668457,11.2991333,-27.80151367,2.296447754,0.577270508,-2.291748047,0.004516602,11,0,24
2,24,2,11060,575,0.418334961,1.210144043,-0.168823242,42.89245605,3.18145752,58.76159668,1.239013672,-3.427246094,0.004516602,11,0,3
2,24,3,11061,575,0.164428711,1.387268066,0.289611816,-46.79870605,94.60449219,39.77203369,-0.434448242,-0.112426758,0.019287109,11,0,134
2,24,1,11062,575,0.141052246,-0.983642578,0.047668457,11.2991333,-27.80151367,2.296447754,0.577270508,-2.288818359,0.004516602,11,0,220
2,24,1,11066,576,0.141052246,-0.983642578,0.047668457,11.2991333,-27.80151367,2.296447754,0.577270508,-2.288818359,0.004516602,11,0,57
2,24,3,11067,576,0.164428711,1.387268066,0.289611816,-46.79870605,94.60449219,39.77203369,-0.422851563,-0.096313477,0.024291992,11,0,236
2,24,2,11068,576,0.418334961,1.210144043,-0.168823242,42.89245605,3.18145752,58.76159668,1.239013672,-3.427246094,0.004516602,11,0,0
2,24,3,11072,577,0.164428711,1.387268066,0.289611816,-46.79870605,94.60449219,39.77203369,-0.422851563,-0.096313477,0.024291992,11,0,54
2,24,1,11073,577,0.141052246,-0.983642578,0.047668457,11.2991333,-27.80151367,2.296447754,0.577270508,-2.288818359,0.004516602,11,0,227
2,24,2,11080,577,0.418334961,1.210144043,-0.168823242,42.89245605,3.18145752,58.76159668,1.239013672,-3.427246094,0.004516602,11,0,62
2,24,2,11083,578,0.418334961,1.210144043,-0.168823242,42.89245605,3.18145752,58.76159668,1.239013672,-3.424194336,0.004516602,11,0,94
2,24,1,11084,578,0.141052246,-0.983642578,0.047668457,11.2991333,-27.80151367,2.296447754,0.577270508,-2.285644531,0.004516602,11,0,57
2,24,3,11085,578,0.164428711,1.387268066,0.289611816,-46.79870605,94.60449219,39.77203369,-0.427246094,-0.098999023,0.022827148,11,0,183
2,24,3,11090,579,0.164428711,1.387268066,0.289611816,-46.79870605,94.60449219,39.77203369,-0.427246094,-0.098999023,0.022827148,11,0,228
2,24,2,11091,579,0.418334961,1.210144043,-0.168823242,42.89245605,3.18145752,58.76159668,1.239013672,-3.424194336,0.004516602,11,0,34
2,24,1,11092,579,0.141052246,-0.983642578,0.047668457,11.2991333,-27.80151367,2.296447754,0.577270508,-2.285644531,0.004516602,11,0,69
2,24,2,11096,580,0.418334961,1.210144043,-0.168823242,42.89245605,3.18145752,58.76159668,1.239013672,-3.424194336,0.004516602,11,0,210
2,24,3,11097,580,0.164428711,1.387268066,0.289611816,-46.79870605,94.60449219,39.77203369,-0.427246094,-0.098999023,0.022827148,11,0,20
2,24,1,11098,580,0.141052246,-0.983642578,0.047668457,11.2991333,-27.80151367,2.296447754,0.577270508,-2.285644531,0.004516602,11,0,233
2,24,3,11102,581,-0.065979004,1.673217773,-0.706787109,89.53094482,-26.7791748,-58.95996094,-0.421875,-0.10559082,0.036254883,11,0,12
2,24,2,11103,581,0.418334961,1.210144043,-0.168823242,42.89245605,3.18145752,58.76159668,1.239013672,-3.424194336,0.004516602,11,0,219
2,24,1,11104,581,0.141052246,-0.983642578,0.047668457,11.2991333,-27.80151367,2.296447754,0.577270508,-2.285644531,0.004516602,11,0,195
2,24,3,11108,582,-0.065979004,1.673217773,-0.706787109,89.53094482,-26.7791748,-58.95996094,-0.421875,-0.10559082,0.036254883,11,0,106
2,24,1,11110,582,0.401489258,-1.309753418,0.371459961,-31.19659424,-29.19006348,11.48223877,0.577270508,-2.282470703,0.004516602,11,0,79
2,24,2,11111,582,-0.07800293,1.885925293,-0.021484375,59.63134766,11.59667969,95.0012207,1.239013672,-3.421020508,0.004516602,11,0,172
2,24,1,11114,583,0.401489258,-1.309753418,0.371459961,-31.19659424,-29.19006348,11.48223877,0.577270508,-2.282470703,0.004516602,11,0,68
2,24,3,11115,583,-0.065979004,1.673217773,-0.706787109,89.53094482,-26.7791748,-58.95996094,-0.422485352,-0.121704102,0.04284668,11,0,49
2,24,2,11116,583,-0.07800293,1.885925293,-0.021484375,59.63134766,11.59667969,95.0012207,1.239013672,-3.421020508,0.004516602,11,0,136
2,24,2,11121,584,-0.07800293,1.885925293,-0.021484375,59.63134766,11.59667969,95.0012207,1.239013672,-3.421020508,0.004516602,11,0,75
2,24,3,11123,584,-0.065979004,1.673217773,-0.706787109,89.53094482,-26.7791748,-58.95996094,-0.422485352,-0.121704102,0.04284668,11,0,174
2,24,1,11124,584,0.401489258,-1.309753418,0.371459961,-31.19659424,-29.19006348,11.48223877,0.577270508,-2.282470703,0.004516602,11,0,78
2,24,3,11129,585,-0.065979004,1.673217773,-0.706787109,89.53094482,-26.7791748,-58.95996094,-0.422485352,-0.121704102,0.04284668,11,0,48
2,24,2,11130,585,-0.07800293,1.885925293,-0.021484375,59.63134766,11.59667969,95.0012207,1.239013672,-3.421020508,0.004516602,11,0,111
2,24,1,11131,585,0.401489258,-1.309753418,0.371459961,-31.19659424,-29.19006348,11.48223877,0.577270508,-2.282470703,0.004516602,11,0,140
2,24,3,11135,586,-0.065979004,1.673217773,-0.706787109,89.53094482,-26.7791748,-58.95996094,-0.420654297,-0.108642578,0.03918457,11,0,245
2,24,1,11137,586,0.401489258,-1.309753418,0.371459961,-31.19659424,-29.19006348,11.48223877,0.577270508,-2.279296875,0.004516602,11,0,1
2,24,2,11138,586,-0.07800293,1.885925293,-0.021484375,59.63134766,11.59667969,95.0012207,1.239013672,-3.41784668,0.004516602,11,0,105
2,24,3,11141,587,-0.065979004,1.673217773,-0.706787109,89.53094482,-26.7791748,-58.95996094,-0.420654297,-0.108642578,0.03918457,11,0,1
2,24,1,11142,587,0.401489258,-1.309753418,0.371459961,-31.19659424,-29.19006348,11.48223877,0.577270508,-2.279296875,0.004516602,11,0,8
2,24,2,11143,587,-0.07800293,1.885925293,-0.021484375,59.63134766,11.59667969,95.0012207,1.239013672,-3.41784668,0.004516602,11,0,19
2,24,3,11147,588,-0.065979004,1.673217773,-0.706787109,89.53094482,-26.7791748,-58.95996094,-0.422851563,-0.122924805,0.035888672,11,0,43
2,24,1,11148,588,0.401489258,-1.309753418,0.371459961,-31.19659424,-29.19006348,11.48223877,0.577270508,-2.279296875,0.004516602,11,0,66
2,24,2,11149,588,-0.07800293,1.885925293,-0.021484375,59.63134766,11.59667969,95.0012207,1.239013672,-3.41784668,0.004516602,11,0,89
2,24,3,11153,589,-0.065979004,1.673217773,-0.706787109,89.53094482,-26.7791748,-58.95996094,-0.422851563,-0.122924805,0.035888672,11,0,36
2,24,2,11154,589,-0.07800293,1.885925293,-0.021484375,59.63134766,11.59667969,95.0012207,1.239013672,-3.41784668,0.004516602,11,0,10
2,24,1,11155,589,0.401489258,-1.309753418,0.371459961,-31.19659424,-29.19006348,11.48223877,0.577270508,-2.279296875,0.004516602,11,0,17
2,24,3,11158,590,-0.065979004,1.673217773,-0.706787109,89.53094482,-26.7791748,-58.95996094,-0.422851563,-0.122924805,0.035888672,11,0,97
2,24,2,11159,590,-0.07800293,1.885925293,-0.021484375,59.63134766,11.59667969,95.0012207,1.239013672,-3.414794922,0.004516602,11,0,150
2,24,1,11164,590,0.401489258,-1.309753418,0.371459961,-31.19659424,-29.19006348,11.48223877,0.577270508,-2.276123047,0.004516602,11,0,39
2,24,2,11168,591,-0.07800293,1.885925293,-0.021484375,59.63134766,11.59667969,95.0012207,1.239013672,-3.414794922,0.004516602,11,0,43
2,24,1,11169,591,0.401489258,-1.309753418,0.371459961,-31.19659424,-29.19006348,11.48223877,0.577270508,-2.276123047,0.004516602,11,0,34
2,24,3,11170,591,-0.065979004,1.673217773,-0.706787109,89.53094482,-26.7791748,-58.95996094,-0.41784668,-0.101196289,0.041870117,11,0,184
2,24,3,11174,592,-0.065979004,1.673217773,-0.706787109,89.53094482,-26.7791748,-58.95996094,-0.41784668,-0.101196289,0.041870117,11,0,245
2,24,1,11175,592,0.401489258,-1.309753418,0.371459961,-31.19659424,-29.19006348,11.48223877,0.577270508,-2.276123047,0.004516602,11,0,28
2,24,2,11176,592,-0.07800293,1.885925293,-0.021484375,59.63134766,11.59667969,95.0012207,1.239013672,-3.414794922,0.004516602,11,0,75
2,24,2,11180,593,-0.07800293,1.885925293,-0.021484375,59.63134766,11.59667969,95.0012207,1.239013672,-3.414794922,0.004516602,11,0,139
2,24,1,11181,593,0.401489258,-1.309753418,0.371459961,-31.19659424,-29.19006348,11.48223877,0.577270508,-2.276123047,0.004516602,11,0,130
2,24,3,11182,593,-0.065979004,1.673217773,-0.706787109,89.53094482,-26.7791748,-58.95996094,-0.41784668,-0.101196289,0.041870117,11,0,24
2,24,3,11186,594,-0.36114502,0.832641602,-0.250427246,92.94128418,18.38684082,-56.70928955,-0.420776367,-0.10144043,0.040771484,11,0,221
2,24,2,11187,594,0.015380859,1.209899902,-0.076049805,75.72937012,4.623413086,113.3880615,1.239013672,-3.411621094,0.004516602,11,0,12
2,24,1,11188,594,0.073852539,-0.951843262,0.319458008,-30.63964844,-26.49688721,30.28869629,0.577270508,-2.272949219,0.004516602,11,0,250
2,24,3,11193,595,-0.36114502,0.832641602,-0.250427246,92.94128418,18.38684082,-56.70928955,-0.420776367,-0.10144043,0.040771484,11,0,249
2,24,1,11194,595,0.073852539,-0.951843262,0.319458008,-30.63964844,-26.49688721,30.28869629,0.577270508,-2.272949219,0.004516602,11,0,130
2,24,2,11195,595,0.015380859,1.209899902,-0.076049805,75.72937012,4.623413086,113.3880615,1.239013672,-3.411621094,0.004516602,11,0,225
2,24,3,11200,596,-0.36114502,0.832641602,-0.250427246,92.94128418,18.38684082,-56.70928955,-0.416137695,-0.131713867,0.053466797,11,0,85
2,24,2,11201,596,0.015380859,1.209899902,-0.076049805,75.72937012,4.623413086,113.3880615,1.239013672,-3.411621094,0.004516602,11,0,85
2,24,1,11202,596,0.073852539,-0.951843262,0.319458008,-30.63964844,-26.49688721,30.28869629,0.577270508,-2.272949219,0.004516602,11,0,69
2,24,3,11206,597,-0.36114502,0.832641602,-0.250427246,92.94128418,18.38684082,-56.70928955,-0.416137695,-0.131713867,0.053466797,11,0,230
2,24,1,11207,597,0.073852539,-0.951843262,0.319458008,-30.63964844,-26.49688721,30.28869629,0.577270508,-2.272949219,0.004516602,11,0,63
2,24,2,11209,597,0.015380859,1.209899902,-0.076049805,75.72937012,4.623413086,113.3880615,1.239013672,-3.411621094,0.004516602,11,0,184
2,24,1,11212,598,0.073852539,-0.951843262,0.319458008,-30.63964844,-26.49688721,30.28869629,0.577270508,-2.270019531,0.004516602,11,0,134
2,24,2,11213,598,0.015380859,1.209899902,-0.076049805,75.72937012,4.623413086,113.3880615,1.239013672,-3.408569336,0.004516602,11,0,247
2,24,3,11214,598,-0.36114502,0.832641602,-0.250427246,92.94128418,18.38684082,-56.70928955,-0.416137695,-0.131713867,0.053466797,11,0,71
2,24,3,11218,599,-0.36114502,0.832641602,-0.250427246,92.94128418,18.38684082,-56.70928955,-0.41003418,-0.108520508,0.047729492,11,0,170
2,24,2,11219,599,0.015380859,1.209899902,-0.076049805,75.72937012,4.623413086,113.3880615,1.239013672,-3.408569336,0.004516602,11,0,30
2,24,1,11220,599,0.073852539,-0.951843262,0.319458008,-30.63964844,-26.49688721,30.28869629,0.577270508,-2.270019531,0.004516602,11,0,250
2,24,1,11224,600,0.073852539,-0.951843262,0.319458008,-30.63964844,-26.49688721,30.28869629,0.577270508,-2.270019531,0.004516602,11,0,18
2,24,3,11225,600,-0.36114502,0.832641602,-0.250427246,92.94128418,18.38684082,-56.70928955,-0.41003418,-0.108520508,0.047729492,11,0,109
2,24,2,11227,600,0.015380859,1.209899902,-0.076049805,75.72937012,4.623413086,113.3880615,1.239013672,-3.408569336,0.004516602,11,0,16
2,24,1,11235,601,0.073852539,-0.951843262,0.319458008,-30.63964844,-26.49688721,30.28869629,0.577270508,-2.266967773,0.004516602,11,0,223
2,24,3,11236,601,-0.36114502,0.832641602,-0.250427246,92.94128418,18.38684082,-56.70928955,-0.408325195,-0.12512207,0.053955078,11,0,120
2,24,2,11237,601,0.015380859,1.209899902,-0.076049805,75.72937012,4.623413086,113.3880615,1.239013672,-3.405517578,0.004516602,11,0,43
2,24,1,11239,601,0.073852539,-0.951843262,0.319458008,-30.63964844,-26.49688721,30.28869629,0.577270508,-2.266967773,0.004516602,11,0,57
2,24,1,11241,602,0.073852539,-0.951843262,0.319458008,-30.63964844,-26.49688721,30.28869629,0.577270508,-2.266967773,0.004516602,11,0,13
2,24,2,11242,602,0.015380859,1.209899902,-0.076049805,75.72937012,4.623413086,113.3880615,1.239013672,-3.405517578,0.004516602,11,0,165
2,24,3,11243,602,-0.36114502,0.832641602,-0.250427246,92.94128418,18.38684082,-56.70928955,-0.408325195,-0.12512207,0.053955078,11,0,246
2,24,2,11246,603,0.015380859,1.209899902,-0.076049805,75.72937012,4.623413086,113.3880615,1.239013672,-3.405517578,0.004516602,11,0,101
2,24,1,11247,603,0.073852539,-0.951843262,0.319458008,-30.63964844,-26.49688721,30.28869629,0.577270508,-2.266967773,0.004516602,11,0,190
2,24,3,11248,603,-0.36114502,0.832641602,-0.250427246,92.94128418,18.38684082,-56.70928955,-0.408325195,-0.12512207,0.053955078,11,0,67
2,24,3,11251,604,-0.012268066,1.01953125,-0.262329102,61.7980957,-14.45007324,-36.50665283,-0.409912109,-0.12878418,0.057373047,11,0,56
2,24,1,11252,604,0.073852539,-0.951843262,0.319458008,-30.63964844,-26.49688721,30.28869629,0.577270508,-2.266967773,0.004516602,11,0,223
2,24,2,11253,604,0.015380859,1.209899902,-0.076049805,75.72937012,4.623413086,113.3880615,1.239013672,-3.405517578,0.004516602,11,0,4
2,24,3,11257,605,-0.012268066,1.01953125,-0.262329102,61.7980957,-14.45007324,-36.50665283,-0.409912109,-0.12878418,0.057373047,11,0,166
2,24,2,11258,605,0.015380859,1.209899902,-0.076049805,75.72937012,4.623413086,113.3880615,1.239013672,-3.405517578,0.004516602,11,0,198
2,24,1,11259,605,0.073852539,-0.951843262,0.319458008,-30.63964844,-26.49688721,30.28869629,0.577270508,-2.266967773,0.004516602,11,0,29
2,24,1,11266,606,0.288208008,-1.073669434,0.230957031,-5.935668945,-31.88323975,17.28820801,0.577270508,-2.263671875,0.004516602,11,0,81
2,24,3,11267,606,-0.012268066,1.01953125,-0.262329102,61.7980957,-14.45007324,-36.50665283,-0.409667969,-0.098876953,0.05078125,11,0,219
2,24,2,11268,606,-0.489990234,0.643798828,0.280212402,57.18231201,31.5246582,76.79748535,1.239013672,-3.40234375,0.004516602,11,0,28
2,24,2,11272,607,-0.489990234,0.643798828,0.280212402,57.18231201,31.5246582,76.79748535,1.239013672,-3.40234375,0.004516602,11,0,23
2,24,3,11273,607,-0.012268066,1.01953125,-0.262329102,61.7980957,-14.45007324,-36.50665283,-0.409667969,-0.098876953,0.05078125,11,0,69
2,24,1,11275,607,0.288208008,-1.073669434,0.230957031,-5.935668945,-31.88323975,17.28820801,0.577270508,-2.263671875,0.004516602,11,0,6
2,24,3,11278,608,-0.012268066,1.01953125,-0.262329102,61.7980957,-14.45007324,-36.50665283,-0.409667969,-0.098876953,0.05078125,11,0,29
2,24,1,11279,608,0.288208008,-1.073669434,0.230957031,-5.935668945,-31.88323975,17.28820801,0.577270508,-2.263671875,0.004516602,11,0,151
2,24,2,11281,608,-0.489990234,0.643798828,0.280212402,57.18231201,31.5246582,76.79748535,1.239013672,-3.40234375,0.004516602,11,0,128
2,24,1,11284,609,0.288208008,-1.073669434,0.230957031,-5.935668945,-31.88323975,17.28820801,0.577270508,-2.263671875,0.004516602,11,0,34
2,24,2,11285,609,-0.489990234,0.643798828,0.280212402,57.18231201,31.5246582,76.79748535,1.239013672,-3.399169922,0.004516602,11,0,195
2,24,3,11287,609,-0.012268066,1.01953125,-0.262329102,61.7980957,-14.45007324,-36.50665283,-0.405883789,-0.134887695,0.062866211,11,0,148
2,24,3,11290,610,-0.012268066,1.01953125,-0.262329102,61.7980957,-14.45007324,-36.50665283,-0.405883789,-0.134887695,0.062866211,11,0,105
2,24,1,11291,610,0.288208008,-1.073669434,0.230957031,-5.935668945,-31.88323975,17.28820801,0.577270508,-2.260498047,0.004516602,11,0,20
2,24,2,11294,610,-0.489990234,0.643798828,0.280212402,57.18231201,31.5246582,76.79748535,1.239013672,-3.399169922,0.004516602,11,0,171
2,24,1,11297,611,0.288208008,-1.073669434,0.230957031,-5.935668945,-31.88323975,17.28820801,0.577270508,-2.260498047,0.004516602,11,0,62
2,24,3,11298,611,-0.012268066,1.01953125,-0.262329102,61.7980957,-14.45007324,-36.50665283,-0.405883789,-0.134887695,0.062866211,11,0,48
2,24,2,11299,611,-0.489990234,0.643798828,0.280212402,57.18231201,31.5246582,76.79748535,1.239013672,-3.399169922,0.004516602,11,0,174
2,24,1,11303,612,0.288208008,-1.073669434,0.230957031,-5.935668945,-31.88323975,17.28820801,0.577270508,-2.260498047,0.004516602,11,0,89
2,24,2,11304,612,-0.489990234,0.643798828,0.280212402,57.18231201,31.5246582,76.79748535,1.239013672,-3.399169922,0.004516602,11,0,94
2,24,3,11306,612,-0.012268066,1.01953125,-0.262329102,61.7980957,-14.45007324,-36.50665283,-0.408325195,-0.141967773,0.063476563,11,0,156
2,24,1,11310,613,0.288208008,-1.073669434,0.230957031,-5.935668945,-31.88323975,17.28820801,0.577270508,-2.260498047,0.004516602,11,0,14
2,24,2,11311,613,-0.489990234,0.643798828,0.280212402,57.18231201,31.5246582,76.79748535,1.239013672,-3.396240234,0.004516602,11,0,85
2,24,3,11315,613,-0.012268066,1.01953125,-0.262329102,61.7980957,-14.45007324,-36.50665283,-0.408325195,-0.141967773,0.063476563,11,0,90
2,24,2,11318,614,-0.489990234,0.643798828,0.280212402,57.18231201,31.5246582,76.79748535,1.239013672,-3.396240234,0.004516602,11,0,223
2,24,1,11319,614,0.288208008,-1.073669434,0.230957031,-5.935668945,-31.88323975,17.28820801,0.577270508,-2.257202148,0.004516602,11,0,89
2,24,3,11321,614,-0.012268066,1.01953125,-0.262329102,61.7980957,-14.45007324,-36.50665283,-0.396118164,-0.119506836,0.076293945,11,0,127
2,24,1,11326,615,0.288208008,-1.073669434,0.230957031,-5.935668945,-31.88323975,17.28820801,0.577270508,-2.257202148,0.004516602,11,0,14
2,24,2,11326,615,-0.489990234,0.643798828,0.280212402,57.18231201,31.5246582,76.79748535,1.239013672,-3.396240234,0.004516602,11,0,50
2,24,3,11328,615,-0.012268066,1.01953125,-0.262329102,61.7980957,-14.45007324,-36.50665283,-0.396118164,-0.119506836,0.076293945,11,0,214
2,24,1,11332,616,0.288208008,-1.073669434,0.230957031,-5.935668945,-31.88323975,17.28820801,0.577270508,-2.257202148,0.004516602,11,0,141
2,24,3,11333,616,-0.109191895,0.919067383,-0.235961914,46.875,-4.280090332,-24.56665039,-0.401733398,-0.121459961,0.065185547,11,0,63
2,24,2,11334,616,-0.489990234,0.643798828,0.280212402,57.18231201,31.5246582,76.79748535,1.239013672,-3.396240234,0.004516602,11,0,194
2,24,1,11338,617,0.184143066,-0.833251953,0.151794434,6.103515625,-20.66040039,8.583068848,0.577270508,-2.254150391,0.004516602,11,0,144
2,24,3,11339,617,-0.109191895,0.919067383,-0.235961914,46.875,-4.280090332,-24.56665039,-0.401733398,-0.121459961,0.065185547,11,0,71
2,24,2,11341,617,-0.489990234,0.643798828,0.280212402,57.18231201,31.5246582,76.79748535,1.239013672,-3.393188477,0.004516602,11,0,37
2,24,3,11346,618,-0.109191895,0.919067383,-0.235961914,46.875,-4.280090332,-24.56665039,-0.401733398,-0.121459961,0.065185547,11,0,205
2,24,2,11347,618,-0.489990234,0.643798828,0.280212402,57.18231201,31.5246582,76.79748535,1.239013672,-3.393188477,0.004516602,11,0,128
2,24,1,11348,618,0.184143066,-0.833251953,0.151794434,6.103515625,-20.66040039,8.583068848,0.577270508,-2.254150391,0.004516602,11,0,53
2,24,2,11351,619,-0.489990234,0.643798828,0.280212402,57.18231201,31.5246582,76.79748535,1.239013672,-3.393188477,0.004516602,11,0,64
2,24,3,11352,619,-0.109191895,0.919067383,-0.235961914,46.875,-4.280090332,-24.56665039,-0.395141602,-0.122192383,0.075439453,11,0,227
2,24,1,11353,619,0.184143066,-0.833251953,0.151794434,6.103515625,-20.66040039,8.583068848,0.577270508,-2.254150391,0.004516602,11,0,132
2,24,3,11359,620,-0.109191895,0.919067383,-0.235961914,46.875,-4.280090332,-24.56665039,-0.395141602,-0.122192383,0.075439453,11,0,62
2,24,2,11361,620,-0.489990234,0.643798828,0.280212402,57.18231201,31.5246582,76.79748535,1.239013672,-3.393188477,0.004516602,11,0,147
2,24,1,11410,621,0.184143066,-0.833251953,0.151794434,6.103515625,-20.66040039,8.583068848,0.577270508,-2.248046875,0.004516602,11,0,159
2,24,3,11411,621,-0.109191895,0.919067383,-0.235961914,46.875,-4.280090332,-24.56665039,-0.390258789,-0.116699219,0.099487305,11,0,10
2,24,2,11412,621,0.020812988,0.579284668,0.161376953,-1.609802246,20.362854,-62.26348877,1.239013672,-3.38684082,0.004516602,11,0,216
2,24,2,11415,622,0.020812988,0.579284668,0.161376953,-1.609802246,20.362854,-62.26348877,1.239013672,-3.383666992,0.004516602,11,0,182
2,24,1,11417,622,0.211303711,-0.864807129,0.034912109,8.430480957,-12.2833252,-9.422302246,0.577270508,-2.244873047,0.004516602,11,0,117
2,24,3,11418,622,-0.109191895,0.919067383,-0.235961914,46.875,-4.280090332,-24.56665039,-0.390258789,-0.116699219,0.099487305,11,0,17
2,24,2,11422,623,0.020812988,0.579284668,0.161376953,-1.609802246,20.362854,-62.26348877,1.239013672,-3.383666992,0.004516602,11,0,225
2,24,3,11423,623,-0.078918457,0.945983887,-0.298034668,35.87341309,-22.71270752,-24.70397949,-0.390014648,-0.118530273,0.091308594,11,0,239
2,24,1,11424,623,0.211303711,-0.864807129,0.034912109,8.430480957,-12.2833252,-9.422302246,0.577270508,-2.244873047,0.004516602,11,0,150
2,24,1,11428,624,0.211303711,-0.864807129,0.034912109,8.430480957,-12.2833252,-9.422302246,0.577270508,-2.244873047,0.004516602,11,0,219
2,24,3,11430,624,-0.078918457,0.945983887,-0.298034668,35.87341309,-22.71270752,-24.70397949,-0.390014648,-0.118530273,0.091308594,11,0,129
2,24,2,11431,624,0.020812988,0.579284668,0.161376953,-1.609802246,20.362854,-62.26348877,1.239013672,-3.383666992,0.004516602,11,0,143
2,24,2,11435,625,0.020812988,0.579284668,0.161376953,-1.609802246,20.362854,-62.26348877,1.239013672,-3.383666992,0.004516602,11,0,132
2,24,1,11436,625,0.211303711,-0.864807129,0.034912109,8.430480957,-12.2833252,-9.422302246,0.577270508,-2.244873047,0.004516602,11,0,54
2,24,3,11437,625,-0.078918457,0.945983887,-0.298034668,35.87341309,-22.71270752,-24.70397949,-0.390014648,-0.118530273,0.091308594,11,0,165
2,24,1,11440,626,0.211303711,-0.864807129,0.034912109,8.430480957,-12.2833252,-9.422302246,0.577270508,-2.241699219,0.004516602,11,0,20
2,24,2,11441,626,0.521606445,1.252685547,0.050537109,-77.22473145,-43.45703125,-176.3000488,1.239013672,-3.380493164,0.004516602,11,0,21
2,24,3,11442,626,-0.078918457,0.945983887,-0.298034668,35.87341309,-22.71270752,-24.70397949,-0.379394531,-0.117553711,0.102661133,11,0,79
2,24,3,11446,627,-0.078918457,0.945983887,-0.298034668,35.87341309,-22.71270752,-24.70397949,-0.379394531,-0.117553711,0.102661133,11,0,143
2,24,2,11450,627,0.521606445,1.252685547,0.050537109,-77.22473145,-43.45703125,-176.3000488,1.239013672,-3.380493164,0.004516602,11,0,49
2,24,1,11451,627,0.211303711,-0.864807129,0.034912109,8.430480957,-12.2833252,-9.422302246,0.577270508,-2.241699219,0.004516602,11,0,48
2,24,3,11454,628,-0.078918457,0.945983887,-0.298034668,35.87341309,-22.71270752,-24.70397949,-0.377929688,-0.118041992,0.107421875,11,0,8
2,24,1,11455,628,0.211303711,-0.864807129,0.034912109,8.430480957,-12.2833252,-9.422302246,0.577270508,-2.241699219,0.004516602,11,0,36
2,24,2,11456,628,0.521606445,1.252685547,0.050537109,-77.22473145,-43.45703125,-176.3000488,1.239013672,-3.380493164,0.004516602,11,0,133
2,24,1,11460,629,0.211303711,-0.864807129,0.034912109,8.430480957,-12.2833252,-9.422302246,0.577270508,-2.241699219,0.004516602,11,0,254
2,24,2,11462,629,0.521606445,1.252685547,0.050537109,-77.22473145,-43.45703125,-176.3000488,1.239013672,-3.380493164,0.004516602,11,0,54
2,24,3,11463,629,-0.078918457,0.945983887,-0.298034668,35.87341309,-22.71270752,-24.70397949,-0.377929688,-0.118041992,0.107421875,11,0,161
2,24,3,11467,630,-0.078918457,0.945983887,-0.298034668,35.87341309,-22.71270752,-24.70397949,-0.377929688,-0.118041992,0.107421875,11,0,230
2,24,2,11468,630,0.521606445,1.252685547,0.050537109,-77.22473145,-43.45703125,-176.3000488,1.239013672,-3.377563477,0.004516602,11,0,14
2,24,1,11469,630,0.211303711,-0.864807129,0.034912109,8.430480957,-12.2833252,-9.422302246,0.577270508,-2.238525391,0.004516602,11,0,102
2,24,3,11472,631,-0.078918457,0.945983887,-0.298034668,35.87341309,-22.71270752,-24.70397949,-0.384277344,-0.119262695,0.118530273,11,0,22
2,24,2,11473,631,0.521606445,1.252685547,0.050537109,-77.22473145,-43.45703125,-176.3000488,1.239013672,-3.377563477,0.004516602,11,0,46
2,24,1,11475,631,0.211303711,-0.864807129,0.034912109,8.430480957,-12.2833252,-9.422302246,0.577270508,-2.238525391,0.004516602,11,0,143
2,24,1,11479,632,0.211303711,-0.864807129,0.034912109,8.430480957,-12.2833252,-9.422302246,0.577270508,-2.238525391,0.004516602,11,0,172
2,24,2,11481,632,0.521606445,1.252685547,0.050537109,-77.22473145,-43.45703125,-176.3000488,1.239013672,-3.377563477,0.004516602,11,0,32
2,24,3,11482,632,-0.078918457,0.945983887,-0.298034668,35.87341309,-22.71270752,-24.70397949,-0.384277344,-0.119262695,0.118530273,11,0,107
2,24,3,11487,633,-0.078918457,0.945983887,-0.298034668,35.87341309,-22.71270752,-24.70397949,-0.384277344,-0.119262695,0.118530273,11,0,17
2,24,2,11488,633,0.521606445,1.252685547,0.050537109,-77.22473145,-43.45703125,-176.3000488,1.239013672,-3.377563477,0.004516602,11,0,195
2,24,1,11489,633,0.211303711,-0.864807129,0.034912109,8.430480957,-12.2833252,-9.422302246,0.577270508,-2.238525391,0.004516602,11,0,171
2,24,3,11492,634,-0.08190918,0.911010742,-0.357727051,34.57641602,-20.10345459,-31.79931641,-0.378173828,-0.118286133,0.117675781,11,0,47
2,24,1,11493,634,0.271972656,-0.841918945,-0.028076172,3.517150879,-3.425598145,-4.96673584,0.577270508,-2.235473633,0.004516602,11,0,195
2,24,2,11494,634,0.521606445,1.252685547,0.050537109,-77.22473145,-43.45703125,-176.3000488,1.239013672,-3.374389648,0.004516602,11,0,13
2,24,1,11499,635,0.271972656,-0.841918945,-0.028076172,3.517150879,-3.425598145,-4.96673584,0.577270508,-2.235473633,0.004516602,11,0,187
2,24,2,11500,635,0.521606445,1.252685547,0.050537109,-77.22473145,-43.45703125,-176.3000488,1.239013672,-3.374389648,0.004516602,11,0,147
2,24,3,11501,635,-0.08190918,0.911010742,-0.357727051,34.57641602,-20.10345459,-31.79931641,-0.378173828,-0.118286133,0.117675781,11,0,120
2,24,1,11504,636,0.271972656,-0.841918945,-0.028076172,3.517150879,-3.425598145,-4.96673584,0.577270508,-2.235473633,0.004516602,11,0,218
