PacketType,PayloadLen,DeviceID,Timestamp,PacketID,AccelX,AccelY,AccelZ,GyroX,GyroY,GyroZ,MagX,MagY,MagZ,Flags,Battery,CRC
2,24,3,3288,1,0.0,0.0,0.0,0.0,0.0,0.0,0.0,0.0,0.0,3,0,224
2,24,2,3289,1,0.0,0.0,0.0,0.0,0.0,0.0,0.0,0.0,0.0,3,0,117
2,24,1,3290,1,0.0,0.0,0.0,0.0,0.0,0.0,0.0,0.0,0.0,3,0,205
2,24,1,3297,2,0.0,0.0,0.0,0.0,0.0,0.0,0.0,0.0,0.0,3,0,17
2,24,2,3299,2,0.0,0.0,0.0,0.0,0.0,0.0,0.0,0.0,0.0,3,0,19
2,24,3,3302,2,0.0,0.0,0.0,0.0,0.0,0.0,0.0,0.0,0.0,3,0,96
2,24,1,3307,3,0.0,0.0,0.0,0.0,0.0,0.0,0.0,0.0,0.0,3,0,143
2,24,2,3308,3,0.0,0.0,0.0,0.0,0.0,0.0,0.0,0.0,0.0,3,0,209
2,24,3,3310,3,0.0,0.0,0.0,0.0,0.0,0.0,0.0,0.0,0.0,3,0,141
2,24,1,3314,4,0.0,0.0,0.0,0.0,0.0,0.0,0.0,0.0,0.0,3,0,157
2,24,2,3315,4,0.0,0.0,0.0,0.0,0.0,0.0,0.0,0.0,0.0,3,0,86
2,24,3,3316,4,0.0,0.0,0.0,0.0,0.0,0.0,0.0,0.0,0.0,3,0,86
2,24,2,3321,5,0.0,0.0,0.0,0.0,0.0,0.0,0.0,0.0,0.0,3,0,200
2,24,3,3322,5,0.0,0.0,0.0,0.0,0.0,0.0,0.0,0.0,0.0,3,0,46
2,24,1,3325,5,0.0,0.0,0.0,0.0,0.0,0.0,0.0,0.0,0.0,3,0,95
2,24,3,3328,6,0.0,0.0,0.0,0.0,0.0,0.0,0.0,0.0,0.0,3,0,168
2,24,1,3329,6,0.0,0.0,0.0,0.0,0.0,0.0,0.0,0.0,0.0,3,0,76
2,24,2,3331,6,0.0,0.0,0.0,0.0,0.0,0.0,0.0,0.0,0.0,3,0,78
2,24,2,3334,7,0.0,0.0,0.0,0.0,0.0,0.0,0.0,0.0,0.0,3,0,52
2,24,1,3335,7,0.0,0.0,0.0,0.0,0.0,0.0,0.0,0.0,0.0,3,0,255
2,24,3,3337,7,0.0,0.0,0.0,0.0,0.0,0.0,0.0,0.0,0.0,3,0,255
2,24,2,3341,8,0.0,0.0,0.0,0.0,0.0,0.0,0.0,0.0,0.0,3,0,243
2,24,1,3344,8,0.0,0.0,0.0,0.0,0.0,0.0,0.0,0.0,0.0,3,0,132
2,24,3,3345,8,0.0,0.0,0.0,0.0,0.0,0.0,0.0,0.0,0.0,3,0,96
2,24,1,3353,9,0.0,0.0,0.0,0.0,0.0,0.0,0.0,0.0,0.0,3,0,211
2,24,3,3354,9,0.0,0.0,0.0,0.0,0.0,0.0,0.0,0.0,0.0,3,0,68
2,24,2,3358,9,0.0,0.0,0.0,0.0,0.0,0.0,0.0,0.0,0.0,3,0,141
2,24,1,3362,10,0.0,0.0,0.0,0.0,0.0,0.0,0.0,0.0,0.0,3,0,15
2,24,2,3363,10,0.0,0.0,0.0,0.0,0.0,0.0,0.0,0.0,0.0,3,0,196
2,24,3,3364,10,0.0,0.0,0.0,0.0,0.0,0.0,0.0,0.0,0.0,3,0,196
2,24,2,3368,11,0.0,0.0,0.0,0.0,0.0,0.0,0.0,0.0,0.0,3,0,224
2,24,1,3369,11,0.0,0.0,0.0,0.0,0.0,0.0,0.0,0.0,0.0,3,0,43
2,24,3,3377,11,0.0,0.0,0.0,0.0,0.0,0.0,0.0,0.0,0.0,3,0,47
2,24,1,3381,12,0.0,0.0,0.0,0.0,0.0,0.0,0.0,0.0,0.0,3,0,101
2,24,3,3382,12,0.0,0.0,0.0,0.0,0.0,0.0,0.0,0.0,0.0,3,0,242
2,24,2,3384,12,0.0,0.0,0.0,0.0,0.0,0.0,0.0,0.0,0.0,3,0,131
2,24,2,3388,13,0.0,0.0,0.0,0.0,0.0,0.0,0.0,0.0,0.0,3,0,67
2,24,1,3389,13,0.0,0.0,0.0,0.0,0.0,0.0,0.0,0.0,0.0,3,0,136
2,24,3,3391,13,0.0,0.0,0.0,0.0,0.0,0.0,0.0,0.0,0.0,3,0,165
2,24,2,3394,14,0.0,0.0,0.0,0.0,0.0,0.0,0.0,0.0,0.0,3,0,137
2,24,1,3395,14,0.0,0.0,0.0,0.0,0.0,0.0,0.0,0.0,0.0,3,0,66
2,24,3,3397,14,0.0,0.0,0.0,0.0,0.0,0.0,0.0,0.0,0.0,3,0,137
2,24,2,3401,15,0.0,0.0,0.0,0.0,0.0,0.0,0.0,0.0,0.0,3,0,173
2,24,3,3402,15,0.0,0.0,0.0,0.0,0.0,0.0,0.0,0.0,0.0,3,0,75
2,24,1,3403,15,0.0,0.0,0.0,0.0,0.0,0.0,0.0,0.0,0.0,3,0,175
2,24,2,3407,16,0.0,0.0,0.0,0.0,0.0,0.0,0.0,0.0,0.0,3,0,147
2,24,3,3408,16,0.0,0.0,0.0,0.0,0.0,0.0,0.0,0.0,0.0,3,0,201
2,24,1,3409,16,0.0,0.0,0.0,0.0,0.0,0.0,0.0,0.0,0.0,3,0,45
2,24,3,3413,17,0.0,0.0,0.0,0.0,0.0,0.0,0.0,0.0,0.0,3,0,179
2,24,2,3414,17,0.0,0.0,0.0,0.0,0.0,0.0,0.0,0.0,0.0,3,0,85
2,24,1,3416,17,0.0,0.0,0.0,0.0,0.0,0.0,0.0,0.0,0.0,3,0,122
2,24,3,3419,18,0.0,0.0,0.0,0.0,0.0,0.0,0.0,0.0,0.0,3,0,135
2,24,1,3420,18,0.0,0.0,0.0,0.0,0.0,0.0,0.0,0.0,0.0,3,0,246
2,24,2,3421,18,0.0,0.0,0.0,0.0,0.0,0.0,0.0,0.0,0.0,3,0,61
2,24,1,3425,19,0.0,0.0,0.0,0.0,0.0,0.0,0.0,0.0,0.0,3,0,243
2,24,3,3426,19,0.0,0.0,0.0,0.0,0.0,0.0,0.0,0.0,0.0,3,0,100
2,24,2,3427,19,0.0,0.0,0.0,0.0,0.0,0.0,0.0,0.0,0.0,3,0,241
2,24,1,3431,20,0.0,0.0,0.0,0.0,0.0,0.0,0.0,0.0,0.0,3,0,148
2,24,2,3432,20,0.0,0.0,0.0,0.0,0.0,0.0,0.0,0.0,0.0,3,0,1
2,24,3,3433,20,0.0,0.0,0.0,0.0,0.0,0.0,0.0,0.0,0.0,3,0,148
2,24,2,3437,21,0.0,0.0,0.0,0.0,0.0,0.0,0.0,0.0,0.0,3,0,123
2,24,1,3438,21,0.0,0.0,0.0,0.0,0.0,0.0,0.0,0.0,0.0,3,0,195
2,24,3,3440,21,0.0,0.0,0.0,0.0,0.0,0.0,0.0,0.0,0.0,3,0,82
2,24,2,3447,22,0.0,0.0,0.0,0.0,0.0,0.0,0.0,0.0,0.0,3,0,56
2,24,1,3448,22,0.0,0.0,0.0,0.0,0.0,0.0,0.0,0.0,0.0,3,0,173
2,24,3,3449,22,0.0,0.0,0.0,0.0,0.0,0.0,0.0,0.0,0.0,3,0,73
2,24,2,3452,23,0.0,0.0,0.0,0.0,0.0,0.0,0.0,0.0,0.0,3,0,28
2,24,1,3453,23,0.0,0.0,0.0,0.0,0.0,0.0,0.0,0.0,0.0,3,0,215
2,24,3,3454,23,0.0,0.0,0.0,0.0,0.0,0.0,0.0,0.0,0.0,3,0,64
2,24,3,3460,24,0.0,0.0,0.0,0.0,0.0,0.0,0.0,0.0,0.0,3,0,87
2,24,2,3461,24,0.0,0.0,0.0,0.0,0.0,0.0,0.0,0.0,0.0,3,0,194
2,24,1,3462,24,0.0,0.0,0.0,0.0,0.0,0.0,0.0,0.0,0.0,3,0,122
2,24,1,3466,25,0.0,0.0,0.0,0.0,0.0,0.0,0.0,0.0,0.0,3,0,113
2,24,3,3467,25,0.0,0.0,0.0,0.0,0.0,0.0,0.0,0.0,0.0,3,0,149
2,24,2,3468,25,0.0,0.0,0.0,0.0,0.0,0.0,0.0,0.0,0.0,3,0,149
2,24,1,3471,26,0.0,0.0,0.0,0.0,0.0,0.0,0.0,0.0,0.0,3,0,71
2,24,2,3472,26,0.0,0.0,0.0,0.0,0.0,0.0,0.0,0.0,0.0,3,0,67
2,24,3,3473,26,0.0,0.0,0.0,0.0,0.0,0.0,0.0,0.0,0.0,3,0,214
2,24,2,3477,27,0.0,0.0,0.0,0.0,0.0,0.0,0.0,0.0,0.0,3,0,57
2,24,1,3478,27,0.0,0.0,0.0,0.0,0.0,0.0,0.0,0.0,0.0,3,0,129
2,24,3,3479,27,0.0,0.0,0.0,0.0,0.0,0.0,0.0,0.0,0.0,3,0,101
2,24,1,3491,28,0.0,0.0,0.0,0.0,0.0,0.0,0.0,0.0,0.0,3,0,155
2,24,2,3492,28,0.0,0.0,0.0,0.0,0.0,0.0,0.0,0.0,0.0,3,0,197
2,24,3,3493,28,0.0,0.0,0.0,0.0,0.0,0.0,0.0,0.0,0.0,3,0,80
2,24,1,3498,29,0.0,0.0,0.0,0.0,0.0,0.0,0.0,0.0,0.0,3,0,204
2,24,2,3501,29,0.0,0.0,0.0,0.0,0.0,0.0,0.0,0.0,0.0,3,0,146
2,24,3,3516,29,0.0,0.0,0.0,0.0,0.0,0.0,0.0,0.0,0.0,3,0,150
2,24,3,3519,30,0.0,0.0,0.0,0.0,0.0,0.0,0.0,0.0,0.0,3,0,53
2,24,2,3520,30,0.0,0.0,0.0,0.0,0.0,0.0,0.0,0.0,0.0,3,0,0
2,24,1,3521,30,0.0,0.0,0.0,0.0,0.0,0.0,0.0,0.0,0.0,3,0,203
2,24,1,3525,31,0.0,0.0,0.0,0.0,0.0,0.0,0.0,0.0,0.0,3,0,11
2,24,3,3527,31,0.0,0.0,0.0,0.0,0.0,0.0,0.0,0.0,0.0,3,0,38
2,24,2,3528,31,0.0,0.0,0.0,0.0,0.0,0.0,0.0,0.0,0.0,3,0,237
2,24,3,3534,32,0.0,0.0,0.0,0.0,0.0,0.0,0.0,0.0,0.0,3,0,32
2,24,2,3539,32,0.0,0.0,0.0,0.0,0.0,0.0,0.0,0.0,0.0,3,0,9
2,24,1,3541,32,0.0,0.0,0.0,0.0,0.0,0.0,0.0,0.0,0.0,3,0,237
2,24,1,3545,33,0.0,0.0,0.0,0.0,0.0,0.0,0.0,0.0,0.0,3,0,230
2,24,2,3546,33,0.0,0.0,0.0,0.0,0.0,0.0,0.0,0.0,0.0,3,0,94
2,24,3,3547,33,0.0,0.0,0.0,0.0,0.0,0.0,0.0,0.0,0.0,3,0,203
2,24,2,3551,34,0.0,0.0,0.0,0.0,0.0,0.0,0.0,0.0,0.0,3,0,104
2,24,3,3552,34,0.0,0.0,0.0,0.0,0.0,0.0,0.0,0.0,0.0,3,0,23
2,24,1,3556,34,0.0,0.0,0.0,0.0,0.0,0.0,0.0,0.0,0.0,3,0,175
2,24,3,3560,35,0.0,0.0,0.0,0.0,0.0,0.0,0.0,0.0,0.0,3,0,250
2,24,2,3561,35,0.0,0.0,0.0,0.0,0.0,0.0,0.0,0.0,0.0,3,0,111
2,24,1,3562,35,0.0,0.0,0.0,0.0,0.0,0.0,0.0,0.0,0.0,3,0,215
2,24,2,3569,36,0.0,0.0,0.0,0.0,0.0,0.0,0.0,0.0,0.0,3,0,199
2,24,3,3571,36,0.0,0.0,0.0,0.0,0.0,0.0,0.0,0.0,0.0,3,0,155
2,24,1,3573,36,0.0,0.0,0.0,0.0,0.0,0.0,0.0,0.0,0.0,3,0,80
2,24,1,3577,37,0.0,0.0,0.0,0.0,0.0,0.0,0.0,0.0,0.0,3,0,91
2,24,3,3580,37,0.0,0.0,0.0,0.0,0.0,0.0,0.0,0.0,0.0,3,0,89
2,24,2,3581,37,0.0,0.0,0.0,0.0,0.0,0.0,0.0,0.0,0.0,3,0,204
2,24,1,3586,38,0.0,0.0,0.0,0.0,0.0,0.0,0.0,0.0,0.0,3,0,27
2,24,2,3587,38,0.0,0.0,0.0,0.0,0.0,0.0,0.0,0.0,0.0,3,0,208
2,24,3,3588,38,0.0,0.0,0.0,0.0,0.0,0.0,0.0,0.0,0.0,3,0,208
2,24,1,3592,39,0.0,0.0,0.0,0.0,0.0,0.0,0.0,0.0,0.0,3,0,133
2,24,2,3593,39,0.0,0.0,0.0,0.0,0.0,0.0,0.0,0.0,0.0,3,0,78
2,24,3,3595,39,0.0,0.0,0.0,0.0,0.0,0.0,0.0,0.0,0.0,3,0,18
2,24,2,3598,40,0.0,0.0,0.0,0.0,0.0,0.0,0.0,0.0,0.0,3,0,164
2,24,3,3599,40,0.0,0.0,0.0,0.0,0.0,0.0,0.0,0.0,0.0,3,0,49
2,24,1,3600,40,0.0,0.0,0.0,0.0,0.0,0.0,0.0,0.0,0.0,3,0,26
2,24,2,3603,41,0.0,0.0,0.0,0.0,0.0,0.0,0.0,0.0,0.0,3,0,132
2,24,1,3604,41,0.0,0.0,0.0,0.0,0.0,0.0,0.0,0.0,0.0,3,0,218
2,24,3,3605,41,0.0,0.0,0.0,0.0,0.0,0.0,0.0,0.0,0.0,3,0,62
2,24,3,3609,42,0.0,0.0,0.0,0.0,0.0,0.0,0.0,0.0,0.0,3,0,121
2,24,2,3610,42,0.0,0.0,0.0,0.0,0.0,0.0,0.0,0.0,0.0,3,0,159
2,24,1,3614,42,0.0,0.0,0.0,0.0,0.0,0.0,0.0,0.0,0.0,3,0,8
2,24,2,3618,43,0.0,0.0,0.0,0.0,0.0,0.0,0.0,0.0,0.0,3,0,198
2,24,1,3619,43,0.0,0.0,0.0,0.0,0.0,0.0,0.0,0.0,0.0,3,0,13
2,24,3,3621,43,0.0,0.0,0.0,0.0,0.0,0.0,0.0,0.0,0.0,3,0,198
2,24,1,3624,44,0.0,0.0,0.0,0.0,0.0,0.0,0.0,0.0,0.0,3,0,253
2,24,2,3625,44,0.0,0.0,0.0,0.0,0.0,0.0,0.0,0.0,0.0,3,0,54
2,24,3,3626,44,0.0,0.0,0.0,0.0,0.0,0.0,0.0,0.0,0.0,3,0,208
2,24,2,3629,45,0.0,0.0,0.0,0.0,0.0,0.0,0.0,0.0,0.0,3,0,246
2,24,3,3631,45,0.0,0.0,0.0,0.0,0.0,0.0,0.0,0.0,0.0,3,0,170
2,24,1,3632,45,0.0,0.0,0.0,0.0,0.0,0.0,0.0,0.0,0.0,3,0,129
2,24,2,3635,46,0.0,0.0,0.0,0.0,0.0,0.0,0.0,0.0,0.0,3,0,83
2,24,3,3636,46,0.0,0.0,0.0,0.0,0.0,0.0,0.0,0.0,0.0,3,0,83
2,24,1,3638,46,0.0,0.0,0.0,0.0,0.0,0.0,0.0,0.0,0.0,3,0,126
2,24,2,3642,47,0.0,0.0,0.0,0.0,0.0,0.0,0.0,0.0,0.0,3,0,4
2,24,3,3643,47,0.0,0.0,0.0,0.0,0.0,0.0,0.0,0.0,0.0,3,0,145
2,24,1,3646,47,0.0,0.0,0.0,0.0,0.0,0.0,0.0,0.0,0.0,3,0,147
2,24,1,3650,48,0.0,0.0,0.0,0.0,0.0,0.0,0.0,0.0,0.0,3,0,235
2,24,3,3652,48,0.0,0.0,0.0,0.0,0.0,0.0,0.0,0.0,0.0,3,0,32
2,24,2,3654,48,0.0,0.0,0.0,0.0,0.0,0.0,0.0,0.0,0.0,3,0,124
2,24,3,3657,49,0.0,0.0,0.0,0.0,0.0,0.0,0.0,0.0,0.0,3,0,145
2,24,1,3658,49,0.0,0.0,0.0,0.0,0.0,0.0,0.0,0.0,0.0,3,0,6
2,24,2,3659,49,0.0,0.0,0.0,0.0,0.0,0.0,0.0,0.0,0.0,3,0,205
2,24,1,3663,50,0.0,0.0,0.0,0.0,0.0,0.0,0.0,0.0,0.0,3,0,48
2,24,2,3664,50,0.0,0.0,0.0,0.0,0.0,0.0,0.0,0.0,0.0,3,0,52
2,24,3,3665,50,0.0,0.0,0.0,0.0,0.0,0.0,0.0,0.0,0.0,3,0,161
2,24,2,3669,51,0.0,0.0,0.0,0.0,0.0,0.0,0.0,0.0,0.0,3,0,78
2,24,3,3670,51,0.0,0.0,0.0,0.0,0.0,0.0,0.0,0.0,0.0,3,0,168
2,24,1,3671,51,0.0,0.0,0.0,0.0,0.0,0.0,0.0,0.0,0.0,3,0,76
2,24,1,3674,52,0.0,0.0,0.0,0.0,0.0,0.0,0.0,0.0,0.0,3,0,41
2,24,2,3675,52,0.0,0.0,0.0,0.0,0.0,0.0,0.0,0.0,0.0,3,0,226
2,24,3,3676,52,0.0,0.0,0.0,0.0,0.0,0.0,0.0,0.0,0.0,3,0,226
2,24,2,3680,53,0.0,0.0,0.0,0.0,0.0,0.0,0.0,0.0,0.0,3,0,114
2,24,3,3682,53,0.0,0.0,0.0,0.0,0.0,0.0,0.0,0.0,0.0,3,0,46
2,24,1,3688,53,0.0,0.0,0.0,0.0,0.0,0.0,0.0,0.0,0.0,3,0,200
2,24,3,3691,54,0.0,0.0,0.0,0.0,0.0,0.0,0.0,0.0,0.0,3,0,53
2,24,1,3692,54,0.0,0.0,0.0,0.0,0.0,0.0,0.0,0.0,0.0,3,0,68
2,24,2,3693,54,0.0,0.0,0.0,0.0,0.0,0.0,0.0,0.0,0.0,3,0,143
2,24,2,3698,55,0.0,0.0,0.0,0.0,0.0,0.0,0.0,0.0,0.0,3,0,220
2,24,1,3699,55,0.0,0.0,0.0,0.0,0.0,0.0,0.0,0.0,0.0,3,0,23
2,24,3,3750,56,0.0,0.0,0.0,0.0,0.0,0.0,0.0,0.0,0.0,3,0,159
2,24,2,3752,56,0.0,0.0,0.0,0.0,0.0,0.0,0.0,0.0,0.0,3,0,238
2,24,1,3753,56,0.0,0.0,0.0,0.0,0.0,0.0,0.0,0.0,0.0,3,0,37
2,24,3,3757,57,0.0,0.0,0.0,0.0,0.0,0.0,0.0,0.0,0.0,3,0,187
2,24,1,3758,57,0.0,0.0,0.0,0.0,0.0,0.0,0.0,0.0,0.0,3,0,44
2,24,2,3759,57,0.0,0.0,0.0,0.0,0.0,0.0,0.0,0.0,0.0,3,0,231
2,24,1,3763,58,0.0,0.0,0.0,0.0,0.0,0.0,0.0,0.0,0.0,3,0,64
2,24,2,3764,58,0.0,0.0,0.0,0.0,0.0,0.0,0.0,0.0,0.0,3,0,30
2,24,3,3765,58,0.0,0.0,0.0,0.0,0.0,0.0,0.0,0.0,0.0,3,0,139
2,24,2,3769,59,0.0,0.0,0.0,0.0,0.0,0.0,0.0,0.0,0.0,3,0,175
2,24,3,3770,59,0.0,0.0,0.0,0.0,0.0,0.0,0.0,0.0,0.0,3,0,73
2,24,1,3771,59,0.0,0.0,0.0,0.0,0.0,0.0,0.0,0.0,0.0,3,0,173
2,24,2,3774,60,0.0,0.0,0.0,0.0,0.0,0.0,0.0,0.0,0.0,3,0,114
2,24,1,3775,60,0.0,0.0,0.0,0.0,0.0,0.0,0.0,0.0,0.0,3,0,185
2,24,3,3777,60,0.0,0.0,0.0,0.0,0.0,0.0,0.0,0.0,0.0,3,0,71
2,24,2,3781,61,0.0,0.0,0.0,0.0,0.0,0.0,0.0,0.0,0.0,3,0,168
2,24,3,3782,61,0.0,0.0,0.0,0.0,0.0,0.0,0.0,0.0,0.0,3,0,78
2,24,1,3783,61,0.0,0.0,0.0,0.0,0.0,0.0,0.0,0.0,0.0,3,0,170
2,24,3,3791,62,0.0,0.0,0.0,0.0,0.0,0.0,0.0,0.0,0.0,3,0,85
2,24,1,3792,62,0.0,0.0,0.0,0.0,0.0,0.0,0.0,0.0,0.0,3,0,126
2,24,2,3793,62,0.0,0.0,0.0,0.0,0.0,0.0,0.0,0.0,0.0,3,0,181
2,24,2,3796,63,0.0,0.0,0.0,0.0,0.0,0.0,0.0,0.0,0.0,3,0,207
2,24,1,3797,63,0.0,0.0,0.0,0.0,0.0,0.0,0.0,0.0,0.0,3,0,4
2,24,2,3798,63,0.0,0.0,0.0,0.0,0.0,0.0,0.0,0.0,0.0,3,0,188
2,24,3,3800,63,0.0,0.0,0.0,0.0,0.0,0.0,0.0,0.0,0.0,3,0,205
2,24,2,3805,64,0.0,0.0,0.0,0.0,0.0,0.0,0.0,0.0,0.0,3,0,118
2,24,3,3806,64,0.0,0.0,0.0,0.0,0.0,0.0,0.0,0.0,0.0,3,0,144
2,24,1,3807,64,0.0,0.0,0.0,0.0,0.0,0.0,0.0,0.0,0.0,3,0,116
2,24,2,3811,65,0.0,0.0,0.0,0.0,0.0,0.0,0.0,0.0,0.0,3,0,186
2,24,1,3812,65,0.0,0.0,0.0,0.0,0.0,0.0,0.0,0.0,0.0,3,0,228
2,24,3,3813,65,0.0,0.0,0.0,0.0,0.0,0.0,0.0,0.0,0.0,3,0,0
2,24,3,3816,66,0.0,0.0,0.0,0.0,0.0,0.0,0.0,0.0,0.0,3,0,253
2,24,2,3817,66,0.0,0.0,0.0,0.0,0.0,0.0,0.0,0.0,0.0,3,0,104
2,24,1,3818,66,0.0,0.0,0.0,0.0,0.0,0.0,0.0,0.0,0.0,3,0,208
2,24,3,3823,67,0.0,0.0,0.0,0.0,0.0,0.0,0.0,0.0,0.0,3,0,244
2,24,2,3825,67,0.0,0.0,0.0,0.0,0.0,0.0,0.0,0.0,0.0,3,0,20
2,24,1,3827,67,0.0,0.0,0.0,0.0,0.0,0.0,0.0,0.0,0.0,3,0,22
2,24,2,3830,68,0.0,0.0,0.0,0.0,0.0,0.0,0.0,0.0,0.0,3,0,201
2,24,3,3831,68,0.0,0.0,0.0,0.0,0.0,0.0,0.0,0.0,0.0,3,0,92
2,24,1,3832,68,0.0,0.0,0.0,0.0,0.0,0.0,0.0,0.0,0.0,3,0,230
2,24,3,3838,69,0.0,0.0,0.0,0.0,0.0,0.0,0.0,0.0,0.0,3,0,11
2,24,2,3839,69,0.0,0.0,0.0,0.0,0.0,0.0,0.0,0.0,0.0,3,0,158
2,24,1,3841,69,0.0,0.0,0.0,0.0,0.0,0.0,0.0,0.0,0.0,3,0,229
2,24,2,3844,70,0.0,0.0,0.0,0.0,0.0,0.0,0.0,0.0,0.0,3,0,162
2,24,3,3845,70,0.0,0.0,0.0,0.0,0.0,0.0,0.0,0.0,0.0,3,0,55
2,24,1,3846,70,0.0,0.0,0.0,0.0,0.0,0.0,0.0,0.0,0.0,3,0,160
2,24,2,3848,70,0.0,0.0,0.0,0.0,0.0,0.0,0.0,0.0,0.0,3,0,143
2,24,2,3851,71,0.0,0.0,0.0,0.0,0.0,0.0,0.0,0.0,0.0,3,0,96
2,24,1,3853,71,0.0,0.0,0.0,0.0,0.0,0.0,0.0,0.0,0.0,3,0,132
2,24,3,3855,71,0.0,0.0,0.0,0.0,0.0,0.0,0.0,0.0,0.0,3,0,169
2,24,1,3859,72,0.0,0.0,0.0,0.0,0.0,0.0,0.0,0.0,0.0,3,0,142
2,24,3,3860,72,0.0,0.0,0.0,0.0,0.0,0.0,0.0,0.0,0.0,3,0,255
2,24,2,3861,72,0.0,0.0,0.0,0.0,0.0,0.0,0.0,0.0,0.0,3,0,106
2,24,1,3866,73,0.0,0.0,0.0,0.0,0.0,0.0,0.0,0.0,0.0,3,0,217
2,24,2,3867,73,0.0,0.0,0.0,0.0,0.0,0.0,0.0,0.0,0.0,3,0,18
2,24,3,3868,73,0.0,0.0,0.0,0.0,0.0,0.0,0.0,0.0,0.0,3,0,18
2,24,2,3871,74,0.0,0.0,0.0,0.0,0.0,0.0,0.0,0.0,0.0,3,0,158
2,24,1,3872,74,0.0,0.0,0.0,0.0,0.0,0.0,0.0,0.0,0.0,3,0,191
2,24,3,3873,74,0.0,0.0,0.0,0.0,0.0,0.0,0.0,0.0,0.0,3,0,91
2,24,2,3882,75,0.0,0.0,0.0,0.0,0.0,0.0,0.0,0.0,0.0,3,0,80
2,24,1,3883,75,0.0,0.0,0.0,0.0,0.0,0.0,0.0,0.0,0.0,3,0,155
2,24,3,3884,75,0.0,0.0,0.0,0.0,0.0,0.0,0.0,0.0,0.0,3,0,234
2,24,1,3887,76,0.0,0.0,0.0,0.0,0.0,0.0,0.0,0.0,0.0,3,0,143
2,24,2,3888,76,0.0,0.0,0.0,0.0,0.0,0.0,0.0,0.0,0.0,3,0,139
2,24,3,3889,76,0.0,0.0,0.0,0.0,0.0,0.0,0.0,0.0,0.0,3,0,30
2,24,2,3895,77,0.0,0.0,0.0,0.0,0.0,0.0,0.0,0.0,0.0,3,0,130
2,24,1,3896,77,0.0,0.0,0.0,0.0,0.0,0.0,0.0,0.0,0.0,3,0,23
2,24,3,3897,77,0.0,0.0,0.0,0.0,0.0,0.0,0.0,0.0,0.0,3,0,243
2,24,2,3900,78,0.0,0.0,0.0,0.0,0.0,0.0,0.0,0.0,0.0,3,0,234
2,24,1,3901,78,0.0,0.0,0.0,0.0,0.0,0.0,0.0,0.0,0.0,3,0,33
2,24,3,3903,78,0.0,0.0,0.0,0.0,0.0,0.0,0.0,0.0,0.0,3,0,12
2,24,2,3906,79,0.0,0.0,0.0,0.0,0.0,0.0,0.0,0.0,0.0,3,0,108
2,24,1,3907,79,0.0,0.0,0.0,0.0,0.0,0.0,0.0,0.0,0.0,3,0,167
2,24,3,3909,79,0.0,0.0,0.0,0.0,0.0,0.0,0.0,0.0,0.0,3,0,108
2,24,2,3913,80,-0.09375,-0.99072265625,0.05615234375,-2.044677734375,-3.34930419921875,3.7994384765625,-0.4580078125,0.389404296875,-0.087890625,11,0,93
2,24,1,3914,80,0.156005859375,-0.941162109375,0.27001953125,-2.11334228515625,2.44903564453125,-2.8228759765625,-0.6129150390625,0.13525390625,-0.1539306640625,11,0,36
2,24,3,3915,80,0.32080078125,-0.9462890625,-0.1064453125,8.53729248046875,-0.08392333984375,0.34332275390625,-0.49365234375,0.3297119140625,0.1561279296875,11,0,224
2,24,3,3919,81,0.32080078125,-0.9462890625,-0.1064453125,8.53729248046875,-0.08392333984375,0.34332275390625,-0.49365234375,0.3297119140625,0.1561279296875,11,0,32
2,24,1,3920,81,0.156005859375,-0.941162109375,0.27001953125,-2.11334228515625,2.44903564453125,-2.8228759765625,-0.6129150390625,0.13525390625,-0.1539306640625,11,0,43
2,24,2,3921,81,-0.09375,-0.99072265625,0.05615234375,-2.044677734375,-3.34930419921875,3.7994384765625,-0.4580078125,0.389404296875,-0.087890625,11,0,33
2,24,1,3924,82,0.156005859375,-0.941162109375,0.27001953125,-2.11334228515625,2.44903564453125,-2.8228759765625,-0.6129150390625,0.13525390625,-0.1539306640625,11,0,167
2,24,2,3925,82,-0.09375,-0.99072265625,0.05615234375,-2.044677734375,-3.34930419921875,3.7994384765625,-0.4580078125,0.389404296875,-0.087890625,11,0,173
2,24,3,3927,82,0.32080078125,-0.9462890625,-0.1064453125,8.53729248046875,-0.08392333984375,0.34332275390625,-0.49365234375,0.3297119140625,0.1561279296875,11,0,16
2,24,1,3931,83,0.15625,-0.94580078125,0.276123046875,-2.41851806640625,2.87628173828125,-2.46429443359375,-0.613525390625,0.134765625,-0.1558837890625,11,0,73
2,24,2,3932,83,-0.084716796875,-0.988037109375,0.0439453125,-2.1209716796875,-3.173828125,4.11224365234375,-0.461181640625,0.3990478515625,-0.0938720703125,11,0,166
2,24,3,3933,83,0.319580078125,-0.953857421875,-0.1005859375,8.544921875,0.40435791015625,0.9002685546875,-0.4984130859375,0.314697265625,0.15380859375,11,0,13
2,24,1,3938,84,0.15625,-0.94580078125,0.276123046875,-2.41851806640625,2.87628173828125,-2.46429443359375,-0.613525390625,0.134765625,-0.1558837890625,11,0,126
2,24,3,3939,84,0.319580078125,-0.953857421875,-0.1005859375,8.544921875,0.40435791015625,0.9002685546875,-0.4984130859375,0.314697265625,0.15380859375,11,0,21
2,24,2,3941,84,-0.084716796875,-0.988037109375,0.0439453125,-2.1209716796875,-3.173828125,4.11224365234375,-0.461181640625,0.3990478515625,-0.0938720703125,11,0,145
2,24,2,3946,85,-0.104736328125,-0.99365234375,0.04296875,-2.471923828125,-2.716064453125,4.57000732421875,-0.4627685546875,0.3970947265625,-0.0882568359375,11,0,178
2,24,1,3947,85,0.157958984375,-0.94482421875,0.278076171875,-2.7313232421875,3.25775146484375,-2.62451171875,-0.6158447265625,0.1248779296875,-0.1424560546875,11,0,193
2,24,3,3948,85,0.31396484375,-0.949462890625,-0.091552734375,8.68988037109375,0.49591064453125,0.78582763671875,-0.4964599609375,0.3118896484375,0.154541015625,11,0,145
2,24,2,3951,86,-0.104736328125,-0.99365234375,0.04296875,-2.471923828125,-2.716064453125,4.57000732421875,-0.4627685546875,0.3970947265625,-0.0882568359375,11,0,132
2,24,3,3952,86,0.31396484375,-0.949462890625,-0.091552734375,8.68988037109375,0.49591064453125,0.78582763671875,-0.4964599609375,0.3118896484375,0.154541015625,11,0,71
2,24,1,3953,86,0.157958984375,-0.94482421875,0.278076171875,-2.7313232421875,3.25775146484375,-2.62451171875,-0.6158447265625,0.1248779296875,-0.1424560546875,11,0,130
2,24,1,3957,87,0.157958984375,-0.94482421875,0.278076171875,-2.7313232421875,3.25775146484375,-2.62451171875,-0.6158447265625,0.1248779296875,-0.1424560546875,11,0,66
2,24,2,3958,87,-0.104736328125,-0.99365234375,0.04296875,-2.471923828125,-2.716064453125,4.57000732421875,-0.4627685546875,0.3970947265625,-0.0882568359375,11,0,66
2,24,3,3960,87,0.31396484375,-0.949462890625,-0.091552734375,8.68988037109375,0.49591064453125,0.78582763671875,-0.4964599609375,0.3118896484375,0.154541015625,11,0,170
2,24,2,3967,88,-0.10986328125,-0.994384765625,0.048583984375,-2.1820068359375,-2.8533935546875,4.37164306640625,-0.4654541015625,0.3919677734375,-0.0904541015625,11,0,139
2,24,1,3968,88,0.138916015625,-0.94384765625,0.25439453125,-2.410888671875,3.24249267578125,-2.74658203125,-0.6103515625,0.13427734375,-0.14697265625,11,0,176
2,24,3,3970,88,0.319091796875,-0.946044921875,-0.0869140625,8.758544921875,-0.5950927734375,0.4119873046875,-0.4976806640625,0.3284912109375,0.1517333984375,11,0,221
2,24,2,3973,89,-0.10986328125,-0.994384765625,0.048583984375,-2.1820068359375,-2.8533935546875,4.37164306640625,-0.4654541015625,0.3919677734375,-0.0904541015625,11,0,127
2,24,3,3974,89,0.319091796875,-0.946044921875,-0.0869140625,8.758544921875,-0.5950927734375,0.4119873046875,-0.4976806640625,0.3284912109375,0.1517333984375,11,0,29
2,24,1,3975,89,0.138916015625,-0.94384765625,0.25439453125,-2.410888671875,3.24249267578125,-2.74658203125,-0.6103515625,0.13427734375,-0.14697265625,11,0,185
2,24,3,3979,90,0.317138671875,-0.94970703125,-0.087890625,9.185791015625,0.0152587890625,0.8087158203125,-0.4947509765625,0.331787109375,0.1619873046875,11,0,16
2,24,2,3980,90,-0.107666015625,-0.990234375,0.047119140625,-1.68609619140625,-3.9215087890625,4.11224365234375,-0.462158203125,0.4017333984375,-0.087646484375,11,0,36
2,24,1,3981,90,0.138916015625,-0.94384765625,0.25439453125,-2.410888671875,3.24249267578125,-2.74658203125,-0.6103515625,0.13427734375,-0.14697265625,11,0,107
2,24,3,3985,91,0.317138671875,-0.94970703125,-0.087890625,9.185791015625,0.0152587890625,0.8087158203125,-0.4947509765625,0.331787109375,0.1619873046875,11,0,31
2,24,1,3986,91,0.13720703125,-0.945068359375,0.26123046875,-2.35748291015625,4.2724609375,-2.96783447265625,-0.6156005859375,0.1204833984375,-0.14013671875,11,0,223
2,24,2,3993,91,-0.107666015625,-0.990234375,0.047119140625,-1.68609619140625,-3.9215087890625,4.11224365234375,-0.462158203125,0.4017333984375,-0.087646484375,11,0,207
2,24,1,3998,92,0.13720703125,-0.945068359375,0.26123046875,-2.35748291015625,4.2724609375,-2.96783447265625,-0.6156005859375,0.1204833984375,-0.14013671875,11,0,0
2,24,2,3999,92,-0.115966796875,-0.9814453125,0.03857421875,-3.10516357421875,-3.86810302734375,4.40216064453125,-0.4573974609375,0.399658203125,-0.0921630859375,11,0,161
2,24,3,4000,92,0.31640625,-0.95458984375,-0.088134765625,9.3536376953125,0.06866455078125,1.007080078125,-0.4954833984375,0.3323974609375,0.150390625,11,0,151
2,24,1,4004,93,0.136962890625,-0.94482421875,0.26708984375,-2.89154052734375,4.52423095703125,-3.30352783203125,-0.61572265625,0.1326904296875,-0.1461181640625,11,0,29
2,24,2,4005,93,-0.115966796875,-0.9814453125,0.03857421875,-3.10516357421875,-3.86810302734375,4.40216064453125,-0.4573974609375,0.399658203125,-0.0921630859375,11,0,139
2,24,1,4061,94,0.138671875,-0.9501953125,0.26220703125,-3.4637451171875,3.90625,-4.41741943359375,-0.6129150390625,0.1373291015625,-0.144287109375,11,0,34
2,24,2,4062,94,-0.115478515625,-0.994384765625,0.023193359375,-2.98309326171875,-3.509521484375,4.06646728515625,-0.4573974609375,0.403564453125,-0.08740234375,11,0,203
2,24,3,4063,94,0.31103515625,-0.95947265625,-0.083984375,9.89532470703125,0.5340576171875,0.946044921875,-0.4986572265625,0.335205078125,0.1556396484375,11,0,71
2,24,2,4068,95,-0.10498046875,-0.98974609375,0.031494140625,-2.93731689453125,-3.12042236328125,3.814697265625,-0.453369140625,0.40478515625,-0.0821533203125,11,0,114
2,24,1,4069,95,0.138671875,-0.9501953125,0.26220703125,-3.4637451171875,3.90625,-4.41741943359375,-0.6129150390625,0.1373291015625,-0.144287109375,11,0,123
2,24,3,4070,95,0.30908203125,-0.959716796875,-0.082275390625,10.58197021484375,0.54168701171875,0.86212158203125,-0.4981689453125,0.335205078125,0.157470703125,11,0,203
2,24,2,4074,96,-0.10498046875,-0.98974609375,0.031494140625,-2.93731689453125,-3.12042236328125,3.814697265625,-0.453369140625,0.40478515625,-0.0821533203125,11,0,91
2,24,3,4075,96,0.30908203125,-0.959716796875,-0.082275390625,10.58197021484375,0.54168701171875,0.86212158203125,-0.4981689453125,0.335205078125,0.157470703125,11,0,43
2,24,1,4076,96,0.133056640625,-0.957275390625,0.2578125,-3.8299560546875,3.89862060546875,-5.0201416015625,-0.61474609375,0.137451171875,-0.147705078125,11,0,138
2,24,1,4079,97,0.133056640625,-0.957275390625,0.2578125,-3.8299560546875,3.89862060546875,-5.0201416015625,-0.61474609375,0.137451171875,-0.147705078125,11,0,101
2,24,3,4081,97,0.30908203125,-0.959716796875,-0.082275390625,10.58197021484375,0.54168701171875,0.86212158203125,-0.4981689453125,0.335205078125,0.157470703125,11,0,36
2,24,2,4085,97,-0.10498046875,-0.98974609375,0.031494140625,-2.93731689453125,-3.12042236328125,3.814697265625,-0.453369140625,0.40478515625,-0.0821533203125,11,0,8
2,24,1,4090,98,0.1318359375,-0.9599609375,0.261962890625,-3.54766845703125,4.2877197265625,-5.4779052734375,-0.6156005859375,0.1260986328125,-0.158447265625,11,0,18
2,24,2,4091,98,-0.119873046875,-0.99560546875,0.017333984375,-3.7841796875,-2.67791748046875,3.66973876953125,-0.4549560546875,0.4012451171875,-0.0836181640625,11,0,193
2,24,3,4093,98,0.312744140625,-0.959228515625,-0.081787109375,10.4217529296875,0.7781982421875,1.0528564453125,-0.4925537109375,0.31787109375,0.156982421875,11,0,49
2,24,1,4096,99,0.1318359375,-0.9599609375,0.261962890625,-3.54766845703125,4.2877197265625,-5.4779052734375,-0.6156005859375,0.1260986328125,-0.158447265625,11,0,66
2,24,3,4097,99,0.312744140625,-0.959228515625,-0.081787109375,10.4217529296875,0.7781982421875,1.0528564453125,-0.4925537109375,0.31787109375,0.156982421875,11,0,244
2,24,2,4098,99,-0.119873046875,-0.99560546875,0.017333984375,-3.7841796875,-2.67791748046875,3.66973876953125,-0.4549560546875,0.4012451171875,-0.0836181640625,11,0,88
2,24,3,4102,100,0.37353515625,-0.960205078125,-0.070556640625,10.67352294921875,1.21307373046875,1.1138916015625,-0.4949951171875,0.3343505859375,0.147705078125,11,0,142
2,24,1,4103,100,0.1318359375,-0.9599609375,0.261962890625,-3.54766845703125,4.2877197265625,-5.4779052734375,-0.6156005859375,0.1260986328125,-0.158447265625,11,0,159
2,24,2,4104,100,-0.13427734375,-0.992919921875,0.0126953125,-2.51007080078125,-2.92205810546875,3.1890869140625,-0.45654296875,0.3983154296875,-0.0867919921875,11,0,172
2,24,2,4107,101,-0.13427734375,-0.992919921875,0.0126953125,-2.51007080078125,-2.92205810546875,3.1890869140625,-0.45654296875,0.3983154296875,-0.0867919921875,11,0,67
2,24,1,4108,101,0.1357421875,-0.96728515625,0.257080078125,-3.51715087890625,4.4708251953125,-5.67626953125,-0.6158447265625,0.1339111328125,-0.1575927734375,11,0,177
2,24,1,4159,102,0.135009765625,-0.95751953125,0.249267578125,-1.86920166015625,4.57763671875,-5.9051513671875,-0.613037109375,0.1348876953125,-0.14697265625,11,0,132
2,24,2,4160,102,-0.119140625,-0.99267578125,0.003662109375,-2.02178955078125,-3.7994384765625,2.7923583984375,-0.4569091796875,0.40673828125,-0.0853271484375,11,0,118
2,24,3,4161,102,0.2939453125,-0.9619140625,-0.058837890625,11.3983154296875,0.38909912109375,0.9002685546875,-0.500244140625,0.336181640625,0.1500244140625,11,0,204
2,24,1,4165,103,0.135009765625,-0.95751953125,0.249267578125,-1.86920166015625,4.57763671875,-5.9051513671875,-0.613037109375,0.1348876953125,-0.14697265625,11,0,228
2,24,2,4166,103,-0.119140625,-0.99267578125,0.003662109375,-2.02178955078125,-3.7994384765625,2.7923583984375,-0.4569091796875,0.40673828125,-0.0853271484375,11,0,197
2,24,3,4167,103,0.2939453125,-0.9619140625,-0.058837890625,11.3983154296875,0.38909912109375,0.9002685546875,-0.500244140625,0.336181640625,0.1500244140625,11,0,127
2,24,1,4173,104,0.135009765625,-0.95751953125,0.249267578125,-1.86920166015625,4.57763671875,-5.9051513671875,-0.613037109375,0.1348876953125,-0.14697265625,11,0,234
2,24,3,4174,104,0.3046875,-0.95947265625,-0.06689453125,11.52801513671875,-0.3509521484375,0.396728515625,-0.497802734375,0.33447265625,0.1351318359375,11,0,219
2,24,2,4175,104,-0.119140625,-0.99267578125,0.003662109375,-2.02178955078125,-3.7994384765625,2.7923583984375,-0.4569091796875,0.40673828125,-0.0853271484375,11,0,113
2,24,2,4180,105,-0.1181640625,-0.98876953125,0.007568359375,-3.7384033203125,-3.9825439453125,2.78472900390625,-0.4503173828125,0.4033203125,-0.08642578125,11,0,32
2,24,1,4181,105,0.126953125,-0.955322265625,0.2587890625,-1.15966796875,4.7149658203125,-6.16455078125,-0.6129150390625,0.1295166015625,-0.1474609375,11,0,89
2,24,3,4182,105,0.3046875,-0.95947265625,-0.06689453125,11.52801513671875,-0.3509521484375,0.396728515625,-0.497802734375,0.33447265625,0.1351318359375,11,0,167
2,24,2,4186,106,-0.1181640625,-0.98876953125,0.007568359375,-3.7384033203125,-3.9825439453125,2.78472900390625,-0.4503173828125,0.4033203125,-0.08642578125,11,0,20
2,24,1,4187,106,0.126953125,-0.955322265625,0.2587890625,-1.15966796875,4.7149658203125,-6.16455078125,-0.6129150390625,0.1295166015625,-0.1474609375,11,0,109
2,24,3,4188,106,0.3046875,-0.95947265625,-0.06689453125,11.52801513671875,-0.3509521484375,0.396728515625,-0.497802734375,0.33447265625,0.1351318359375,11,0,117
2,24,2,4191,107,-0.131103515625,-0.9833984375,0.0087890625,-3.63922119140625,-4.14276123046875,3.0364990234375,-0.453125,0.3953857421875,-0.0858154296875,11,0,2
2,24,3,4192,107,0.30322265625,-0.9638671875,-0.06103515625,12.00103759765625,-0.37384033203125,0.63323974609375,-0.499267578125,0.3369140625,0.1370849609375,11,0,176
2,24,1,4194,107,0.126953125,-0.955322265625,0.2587890625,-1.15966796875,4.7149658203125,-6.16455078125,-0.6129150390625,0.1295166015625,-0.1474609375,11,0,142
2,24,2,4203,108,-0.131103515625,-0.9833984375,0.0087890625,-3.63922119140625,-4.14276123046875,3.0364990234375,-0.453125,0.3953857421875,-0.0858154296875,11,0,162
2,24,3,4204,108,0.30322265625,-0.9638671875,-0.06103515625,12.00103759765625,-0.37384033203125,0.63323974609375,-0.499267578125,0.3369140625,0.1370849609375,11,0,111
2,24,1,4205,108,0.123779296875,-0.962646484375,0.25,-0.95367431640625,4.55474853515625,-6.2713623046875,-0.6160888671875,0.13818359375,-0.1494140625,11,0,96
2,24,2,4209,109,-0.126220703125,-0.9833984375,0.005859375,-3.9215087890625,-3.753662109375,3.173828125,-0.4515380859375,0.409912109375,-0.080322265625,11,0,207
2,24,1,4210,109,0.123779296875,-0.962646484375,0.25,-0.95367431640625,4.55474853515625,-6.2713623046875,-0.6160888671875,0.13818359375,-0.1494140625,11,0,51
2,24,3,4211,109,0.3017578125,-0.964111328125,-0.058837890625,12.50457763671875,-0.55694580078125,0.396728515625,-0.495361328125,0.338623046875,0.138671875,11,0,162
2,24,2,4214,110,-0.126220703125,-0.9833984375,0.005859375,-3.9215087890625,-3.753662109375,3.173828125,-0.4515380859375,0.409912109375,-0.080322265625,11,0,138
2,24,3,4215,110,0.3017578125,-0.964111328125,-0.058837890625,12.50457763671875,-0.55694580078125,0.396728515625,-0.495361328125,0.338623046875,0.138671875,11,0,46
2,24,1,4216,110,0.118408203125,-0.953857421875,0.270263671875,-0.89263916015625,4.89044189453125,-6.09588623046875,-0.6170654296875,0.1368408203125,-0.1478271484375,11,0,91
2,24,3,4222,111,0.3017578125,-0.964111328125,-0.058837890625,12.50457763671875,-0.55694580078125,0.396728515625,-0.495361328125,0.338623046875,0.138671875,11,0,121
2,24,2,4223,111,-0.126220703125,-0.9833984375,0.005859375,-3.9215087890625,-3.753662109375,3.173828125,-0.4515380859375,0.409912109375,-0.080322265625,11,0,221
2,24,1,4224,111,0.118408203125,-0.953857421875,0.270263671875,-0.89263916015625,4.89044189453125,-6.09588623046875,-0.6170654296875,0.1368408203125,-0.1478271484375,11,0,220
2,24,3,4227,112,0.311279296875,-0.97412109375,-0.05517578125,12.61138916015625,-0.91552734375,0.08392333984375,-0.500244140625,0.33642578125,0.1353759765625,11,0,178
2,24,2,4228,112,-0.1201171875,-0.98486328125,0.00146484375,-3.66973876953125,-3.5858154296875,3.71551513671875,-0.4505615234375,0.411865234375,-0.0828857421875,11,0,5
2,24,1,4229,112,0.118408203125,-0.953857421875,0.270263671875,-0.89263916015625,4.89044189453125,-6.09588623046875,-0.6170654296875,0.1368408203125,-0.1478271484375,11,0,43
2,24,1,4234,113,0.116455078125,-0.950927734375,0.25244140625,-0.93841552734375,4.9591064453125,-5.24139404296875,-0.6181640625,0.1357421875,-0.1533203125,11,0,101
2,24,2,4235,113,-0.1201171875,-0.98486328125,0.00146484375,-3.66973876953125,-3.5858154296875,3.71551513671875,-0.4505615234375,0.411865234375,-0.0828857421875,11,0,199
2,24,3,4237,113,0.311279296875,-0.97412109375,-0.05517578125,12.61138916015625,-0.91552734375,0.08392333984375,-0.500244140625,0.33642578125,0.1353759765625,11,0,202
2,24,1,4244,114,0.116455078125,-0.950927734375,0.25244140625,-0.93841552734375,4.9591064453125,-5.24139404296875,-0.6181640625,0.1357421875,-0.1533203125,11,0,192
2,24,2,4245,114,-0.127197265625,-0.981689453125,0.000244140625,-3.0517578125,-3.570556640625,4.28009033203125,-0.449951171875,0.4058837890625,-0.080810546875,11,0,253
2,24,3,4247,114,0.300537109375,-0.96435546875,-0.063232421875,13.458251953125,-0.9765625,0.06103515625,-0.4915771484375,0.33740234375,0.140869140625,11,0,254
2,24,3,4250,115,0.300537109375,-0.96435546875,-0.063232421875,13.458251953125,-0.9765625,0.06103515625,-0.4915771484375,0.33740234375,0.140869140625,11,0,79
2,24,1,4251,115,0.107666015625,-0.9423828125,0.255126953125,-0.2899169921875,5.4168701171875,-4.43267822265625,-0.61572265625,0.1259765625,-0.1502685546875,11,0,107
2,24,2,4252,115,-0.127197265625,-0.981689453125,0.000244140625,-3.0517578125,-3.570556640625,4.28009033203125,-0.449951171875,0.4058837890625,-0.080810546875,11,0,170
2,24,2,4256,116,-0.127197265625,-0.981689453125,0.000244140625,-3.0517578125,-3.570556640625,4.28009033203125,-0.449951171875,0.4058837890625,-0.080810546875,11,0,193
2,24,3,4257,116,0.300537109375,-0.96435546875,-0.063232421875,13.458251953125,-0.9765625,0.06103515625,-0.4915771484375,0.33740234375,0.140869140625,11,0,11
2,24,1,4259,116,0.107666015625,-0.9423828125,0.255126953125,-0.2899169921875,5.4168701171875,-4.43267822265625,-0.61572265625,0.1259765625,-0.1502685546875,11,0,230
2,24,2,4262,117,-0.121826171875,-0.98291015625,-0.004150390625,-2.8076171875,-3.21197509765625,4.64630126953125,-0.453857421875,0.4041748046875,-0.0760498046875,11,0,29
2,24,1,4263,117,0.107666015625,-0.9423828125,0.255126953125,-0.2899169921875,5.4168701171875,-4.43267822265625,-0.61572265625,0.1259765625,-0.1502685546875,11,0,38
2,24,3,4264,117,0.29248046875,-0.9677734375,-0.0537109375,14.007568359375,-0.762939453125,-0.2899169921875,-0.495849609375,0.327880859375,0.1348876953125,11,0,233
2,24,2,4268,118,-0.121826171875,-0.98291015625,-0.004150390625,-2.8076171875,-3.21197509765625,4.64630126953125,-0.453857421875,0.4041748046875,-0.0760498046875,11,0,207
2,24,1,4269,118,0.10205078125,-0.9462890625,0.261474609375,0.3814697265625,5.22613525390625,-3.753662109375,-0.614013671875,0.136474609375,-0.1448974609375,11,0,188
2,24,3,4270,118,0.29248046875,-0.9677734375,-0.0537109375,14.007568359375,-0.762939453125,-0.2899169921875,-0.495849609375,0.327880859375,0.1348876953125,11,0,22
2,24,1,4274,119,0.10205078125,-0.9462890625,0.261474609375,0.3814697265625,5.22613525390625,-3.753662109375,-0.614013671875,0.136474609375,-0.1448974609375,11,0,239
2,24,2,4275,119,-0.121826171875,-0.98291015625,-0.004150390625,-2.8076171875,-3.21197509765625,4.64630126953125,-0.453857421875,0.4041748046875,-0.0760498046875,11,0,156
2,24,3,4276,119,0.29248046875,-0.9677734375,-0.0537109375,14.007568359375,-0.762939453125,-0.2899169921875,-0.495849609375,0.327880859375,0.1348876953125,11,0,25
2,24,2,4280,120,-0.119140625,-0.996337890625,-0.004150390625,-2.32696533203125,-2.78472900390625,4.78363037109375,-0.4495849609375,0.4052734375,-0.0811767578125,11,0,86
2,24,3,4281,120,0.29052734375,-0.96533203125,-0.02490234375,13.946533203125,-1.28936767578125,-1.556396484375,-0.490478515625,0.3441162109375,0.1343994140625,11,0,74
2,24,1,4282,120,0.10205078125,-0.9462890625,0.261474609375,0.3814697265625,5.22613525390625,-3.753662109375,-0.614013671875,0.136474609375,-0.1448974609375,11,0,225
2,24,1,4286,121,0.10986328125,-0.949951171875,0.2626953125,0.8697509765625,5.462646484375,-3.51715087890625,-0.6094970703125,0.135986328125,-0.149169921875,11,0,161
2,24,2,4288,121,-0.119140625,-0.996337890625,-0.004150390625,-2.32696533203125,-2.78472900390625,4.78363037109375,-0.4495849609375,0.4052734375,-0.0811767578125,11,0,69
2,24,3,4289,121,0.29052734375,-0.96533203125,-0.02490234375,13.946533203125,-1.28936767578125,-1.556396484375,-0.490478515625,0.3441162109375,0.1343994140625,11,0,89
2,24,3,4292,122,0.29052734375,-0.96533203125,-0.02490234375,13.946533203125,-1.28936767578125,-1.556396484375,-0.490478515625,0.3441162109375,0.1343994140625,11,0,111
2,24,1,4295,122,0.10986328125,-0.949951171875,0.2626953125,0.8697509765625,5.462646484375,-3.51715087890625,-0.6094970703125,0.135986328125,-0.149169921875,11,0,68
2,24,2,4298,122,-0.14111328125,-0.991943359375,-0.0185546875,-1.33514404296875,-2.0751953125,4.64630126953125,-0.4488525390625,0.40869140625,-0.0810546875,11,0,167
2,24,3,4303,123,0.28271484375,-0.967529296875,-0.0322265625,14.24407958984375,-0.86212158203125,-2.08282470703125,-0.4984130859375,0.3421630859375,0.1236572265625,11,0,185
2,24,2,4304,123,-0.14111328125,-0.991943359375,-0.0185546875,-1.33514404296875,-2.0751953125,4.64630126953125,-0.4488525390625,0.40869140625,-0.0810546875,11,0,168
2,24,1,4305,123,0.105712890625,-0.946533203125,0.257568359375,1.251220703125,6.14166259765625,-3.39508056640625,-0.6173095703125,0.134521484375,-0.1593017578125,11,0,125
2,24,3,4309,124,0.28271484375,-0.967529296875,-0.0322265625,14.24407958984375,-0.86212158203125,-2.08282470703125,-0.4984130859375,0.3421630859375,0.1236572265625,11,0,98
2,24,2,4312,124,-0.14111328125,-0.991943359375,-0.0185546875,-1.33514404296875,-2.0751953125,4.64630126953125,-0.4488525390625,0.40869140625,-0.0810546875,11,0,145
2,24,1,4313,124,0.105712890625,-0.946533203125,0.257568359375,1.251220703125,6.14166259765625,-3.39508056640625,-0.6173095703125,0.134521484375,-0.1593017578125,11,0,68
2,24,2,4316,125,-0.153076171875,-0.984619140625,-0.01025390625,-1.47247314453125,-1.93023681640625,4.47845458984375,-0.4501953125,0.4090576171875,-0.0775146484375,11,0,165
2,24,3,4317,125,0.27734375,-0.966796875,-0.004150390625,13.29803466796875,-1.18255615234375,-3.5858154296875,-0.4964599609375,0.343994140625,0.1346435546875,11,0,179
2,24,1,4318,125,0.10302734375,-0.950439453125,0.25732421875,1.83868408203125,6.38580322265625,-3.509521484375,-0.6143798828125,0.13671875,-0.16162109375,11,0,97
2,24,2,4322,126,-0.153076171875,-0.984619140625,-0.01025390625,-1.47247314453125,-1.93023681640625,4.47845458984375,-0.4501953125,0.4090576171875,-0.0775146484375,11,0,37
2,24,1,4323,126,0.10302734375,-0.950439453125,0.25732421875,1.83868408203125,6.38580322265625,-3.509521484375,-0.6143798828125,0.13671875,-0.16162109375,11,0,40
2,24,3,4324,126,0.27734375,-0.966796875,-0.004150390625,13.29803466796875,-1.18255615234375,-3.5858154296875,-0.4964599609375,0.343994140625,0.1346435546875,11,0,28
2,24,3,4327,127,0.273681640625,-0.96875,0.0009765625,13.031005859375,-1.99127197265625,-4.9896240234375,-0.4979248046875,0.3282470703125,0.1319580078125,11,0,244
2,24,2,4329,127,-0.153076171875,-0.984619140625,-0.01025390625,-1.47247314453125,-1.93023681640625,4.47845458984375,-0.4501953125,0.4090576171875,-0.0775146484375,11,0,1
2,24,1,4332,127,0.10302734375,-0.950439453125,0.25732421875,1.83868408203125,6.38580322265625,-3.509521484375,-0.6143798828125,0.13671875,-0.16162109375,11,0,234
2,24,3,4335,128,0.273681640625,-0.96875,0.0009765625,13.031005859375,-1.99127197265625,-4.9896240234375,-0.4979248046875,0.3282470703125,0.1319580078125,11,0,142
2,24,2,4337,128,-0.1396484375,-0.97900390625,-0.01611328125,-1.0986328125,-2.166748046875,3.7384033203125,-0.4456787109375,0.39404296875,-0.0748291015625,11,0,166
2,24,1,4339,128,0.102783203125,-0.9462890625,0.26513671875,2.4261474609375,7.14874267578125,-3.7841796875,-0.6148681640625,0.1343994140625,-0.1585693359375,11,0,29
2,24,3,4342,129,0.273681640625,-0.96875,0.0009765625,13.031005859375,-1.99127197265625,-4.9896240234375,-0.4979248046875,0.3282470703125,0.1319580078125,11,0,72
2,24,1,4343,129,0.102783203125,-0.9462890625,0.26513671875,2.4261474609375,7.14874267578125,-3.7841796875,-0.6148681640625,0.1343994140625,-0.1585693359375,11,0,221
2,24,2,4344,129,-0.1396484375,-0.97900390625,-0.01611328125,-1.0986328125,-2.166748046875,3.7384033203125,-0.4456787109375,0.39404296875,-0.0748291015625,11,0,241
2,24,1,4348,130,0.100830078125,-0.93994140625,0.25830078125,1.9378662109375,8.0413818359375,-4.12750244140625,-0.61181640625,0.1375732421875,-0.152099609375,11,0,89
2,24,3,4349,130,0.29052734375,-0.96923828125,-0.004150390625,12.38250732421875,-3.11279296875,-6.5460205078125,-0.4906005859375,0.33984375,0.130615234375,11,0,102
2,24,2,4350,130,-0.157470703125,-0.984375,-0.01416015625,-0.8697509765625,-1.73187255859375,3.36456298828125,-0.4481201171875,0.408203125,-0.0833740234375,11,0,96
2,24,1,4354,131,0.100830078125,-0.93994140625,0.25830078125,1.9378662109375,8.0413818359375,-4.12750244140625,-0.61181640625,0.1375732421875,-0.152099609375,11,0,117
2,24,2,4355,131,-0.157470703125,-0.984375,-0.01416015625,-0.8697509765625,-1.73187255859375,3.36456298828125,-0.4481201171875,0.408203125,-0.0833740234375,11,0,133
2,24,3,4356,131,0.29052734375,-0.96923828125,-0.004150390625,12.38250732421875,-3.11279296875,-6.5460205078125,-0.4906005859375,0.33984375,0.130615234375,11,0,101
2,24,1,4360,132,0.100830078125,-0.93994140625,0.25830078125,1.9378662109375,8.0413818359375,-4.12750244140625,-0.61181640625,0.1375732421875,-0.152099609375,11,0,63
2,24,2,4361,132,-0.157470703125,-0.984375,-0.01416015625,-0.8697509765625,-1.73187255859375,3.36456298828125,-0.4481201171875,0.408203125,-0.0833740234375,11,0,207
2,24,3,4364,132,0.29052734375,-0.96923828125,-0.004150390625,12.38250732421875,-3.11279296875,-6.5460205078125,-0.4906005859375,0.33984375,0.130615234375,11,0,92
2,24,2,4367,133,-0.1484375,-0.976318359375,-0.00390625,-1.01470947265625,-1.8310546875,3.021240234375,-0.441162109375,0.3988037109375,-0.078857421875,11,0,233
2,24,1,4369,133,0.104248046875,-0.939453125,0.261962890625,1.85394287109375,8.7890625,-4.547119140625,-0.6160888671875,0.1231689453125,-0.1495361328125,11,0,135
2,24,3,4370,133,0.2998046875,-0.967529296875,-0.010009765625,11.90948486328125,-2.86865234375,-7.65228271484375,-0.49658203125,0.3367919921875,0.1260986328125,11,0,24
2,24,2,4374,134,-0.1484375,-0.976318359375,-0.00390625,-1.01470947265625,-1.8310546875,3.021240234375,-0.441162109375,0.3988037109375,-0.078857421875,11,0,99
2,24,1,4375,134,0.104248046875,-0.939453125,0.261962890625,1.85394287109375,8.7890625,-4.547119140625,-0.6160888671875,0.1231689453125,-0.1495361328125,11,0,120
2,24,3,4376,134,0.2998046875,-0.967529296875,-0.010009765625,11.90948486328125,-2.86865234375,-7.65228271484375,-0.49658203125,0.3367919921875,0.1260986328125,11,0,202
2,24,1,4380,135,0.104248046875,-0.939453125,0.261962890625,1.85394287109375,8.7890625,-4.547119140625,-0.6160888671875,0.1231689453125,-0.1495361328125,11,0,92
2,24,2,4382,135,-0.15380859375,-0.984375,-0.01318359375,-0.83160400390625,-1.4801025390625,2.655029296875,-0.4462890625,0.40185546875,-0.0784912109375,11,0,15
2,24,3,4383,135,0.317626953125,-0.9619140625,0.005859375,11.566162109375,-2.00653076171875,-8.09478759765625,-0.4974365234375,0.33935546875,0.1239013671875,11,0,44
2,24,1,4391,136,0.100830078125,-0.944091796875,0.256591796875,2.3345947265625,8.64410400390625,-4.730224609375,-0.61572265625,0.1339111328125,-0.16357421875,11,0,22
2,24,3,4392,136,0.317626953125,-0.9619140625,0.005859375,11.566162109375,-2.00653076171875,-8.09478759765625,-0.4974365234375,0.33935546875,0.1239013671875,11,0,114
2,24,2,4397,136,-0.15380859375,-0.984375,-0.01318359375,-0.83160400390625,-1.4801025390625,2.655029296875,-0.4462890625,0.40185546875,-0.0784912109375,11,0,183
2,24,1,4401,137,0.095703125,-0.95166015625,0.256103515625,2.0904541015625,8.04901123046875,-5.1422119140625,-0.6138916015625,0.1363525390625,-0.154541015625,11,0,12
2,24,3,4402,137,0.30615234375,-0.95849609375,-0.011962890625,11.03973388671875,-0.67138671875,-8.17108154296875,-0.4959716796875,0.34375,0.124267578125,11,0,64
2,24,2,4403,137,-0.1484375,-0.98291015625,-0.015625,-1.09100341796875,-1.52587890625,2.49481201171875,-0.4422607421875,0.4119873046875,-0.0765380859375,11,0,51
2,24,2,4407,138,-0.1484375,-0.98291015625,-0.015625,-1.09100341796875,-1.52587890625,2.49481201171875,-0.4422607421875,0.4119873046875,-0.0765380859375,11,0,191
2,24,1,4408,138,0.095703125,-0.95166015625,0.256103515625,2.0904541015625,8.04901123046875,-5.1422119140625,-0.6138916015625,0.1363525390625,-0.154541015625,11,0,23
2,24,3,4410,138,0.30615234375,-0.95849609375,-0.011962890625,11.03973388671875,-0.67138671875,-8.17108154296875,-0.4959716796875,0.34375,0.124267578125,11,0,225
2,24,2,4413,139,-0.1484375,-0.98291015625,-0.015625,-1.09100341796875,-1.52587890625,2.49481201171875,-0.4422607421875,0.4119873046875,-0.0765380859375,11,0,33
2,24,3,4414,139,0.30615234375,-0.95849609375,-0.011962890625,11.03973388671875,-0.67138671875,-8.17108154296875,-0.4959716796875,0.34375,0.124267578125,11,0,33
2,24,1,4415,139,0.095703125,-0.95166015625,0.256103515625,2.0904541015625,8.04901123046875,-5.1422119140625,-0.6138916015625,0.1363525390625,-0.154541015625,11,0,30
2,24,1,4420,140,0.09130859375,-0.94921875,0.263427734375,1.556396484375,7.78961181640625,-5.18798828125,-0.611572265625,0.13525390625,-0.152587890625,11,0,75
2,24,3,4421,140,0.304931640625,-0.9736328125,-0.002197265625,10.55145263671875,-0.77056884765625,-8.72802734375,-0.5013427734375,0.3438720703125,0.1212158203125,11,0,50
2,24,2,4426,140,-0.147705078125,-0.989013671875,-0.025390625,-0.80108642578125,-1.373291015625,2.3345947265625,-0.44140625,0.413330078125,-0.0765380859375,11,0,101
2,24,3,4429,141,0.304931640625,-0.9736328125,-0.002197265625,10.55145263671875,-0.77056884765625,-8.72802734375,-0.5013427734375,0.3438720703125,0.1212158203125,11,0,223
2,24,2,4431,141,-0.147705078125,-0.989013671875,-0.025390625,-0.80108642578125,-1.373291015625,2.3345947265625,-0.44140625,0.413330078125,-0.0765380859375,11,0,31
2,24,1,4437,141,0.09130859375,-0.94921875,0.263427734375,1.556396484375,7.78961181640625,-5.18798828125,-0.611572265625,0.13525390625,-0.152587890625,11,0,70
2,24,1,4441,142,0.08740234375,-0.947265625,0.257080078125,0.6561279296875,7.354736328125,-5.035400390625,-0.6103515625,0.1351318359375,-0.1578369140625,11,0,27
2,24,3,4442,142,0.31494140625,-0.966064453125,-0.001220703125,10.6048583984375,-1.33514404296875,-9.63592529296875,-0.50244140625,0.342529296875,0.1175537109375,11,0,70
2,24,2,4443,142,-0.145751953125,-0.989990234375,-0.0341796875,-0.3814697265625,-1.47247314453125,2.3193359375,-0.4412841796875,0.4111328125,-0.0679931640625,11,0,240
2,24,2,4447,143,-0.14453125,-0.993408203125,-0.03857421875,-0.26702880859375,-1.64794921875,2.76947021484375,-0.4385986328125,0.4281005859375,-0.0777587890625,11,0,175
2,24,1,4448,143,0.08740234375,-0.947265625,0.257080078125,0.6561279296875,7.354736328125,-5.035400390625,-0.6103515625,0.1351318359375,-0.1578369140625,11,0,248
2,24,3,4449,143,0.31494140625,-0.966064453125,-0.001220703125,10.6048583984375,-1.33514404296875,-9.63592529296875,-0.50244140625,0.342529296875,0.1175537109375,11,0,214
2,24,2,4452,144,-0.14453125,-0.993408203125,-0.03857421875,-0.26702880859375,-1.64794921875,2.76947021484375,-0.4385986328125,0.4281005859375,-0.0777587890625,11,0,178
2,24,1,4453,144,0.08740234375,-0.947265625,0.257080078125,0.6561279296875,7.354736328125,-5.035400390625,-0.6103515625,0.1351318359375,-0.1578369140625,11,0,15
2,24,3,4456,144,0.311279296875,-0.96142578125,0.005859375,10.3912353515625,-0.89263916015625,-10.04791259765625,-0.5035400390625,0.3431396484375,0.127685546875,11,0,199
2,24,1,4460,145,0.092041015625,-0.952392578125,0.2548828125,0.1220703125,7.4462890625,-4.64630126953125,-0.612060546875,0.133544921875,-0.1600341796875,11,0,45
2,24,2,4461,145,-0.14453125,-0.993408203125,-0.03857421875,-0.26702880859375,-1.64794921875,2.76947021484375,-0.4385986328125,0.4281005859375,-0.0777587890625,11,0,229
2,24,3,4462,145,0.311279296875,-0.96142578125,0.005859375,10.3912353515625,-0.89263916015625,-10.04791259765625,-0.5035400390625,0.3431396484375,0.127685546875,11,0,116
2,24,3,4466,146,0.311279296875,-0.96142578125,0.005859375,10.3912353515625,-0.89263916015625,-10.04791259765625,-0.5035400390625,0.3431396484375,0.127685546875,11,0,162
2,24,1,4467,146,0.092041015625,-0.952392578125,0.2548828125,0.1220703125,7.4462890625,-4.64630126953125,-0.612060546875,0.133544921875,-0.1600341796875,11,0,50
2,24,2,4468,146,-0.151611328125,-0.996826171875,-0.03759765625,-0.11444091796875,-2.00653076171875,3.30352783203125,-0.438232421875,0.4088134765625,-0.0721435546875,11,0,202
2,24,1,4472,147,0.081787109375,-0.95751953125,0.247314453125,-0.26702880859375,7.080078125,-4.6234130859375,-0.6151123046875,0.13818359375,-0.1575927734375,11,0,80
2,24,2,4473,147,-0.151611328125,-0.996826171875,-0.03759765625,-0.11444091796875,-2.00653076171875,3.30352783203125,-0.438232421875,0.4088134765625,-0.0721435546875,11,0,123
2,24,3,4474,147,0.314453125,-0.95751953125,0.008544921875,10.62774658203125,-1.18255615234375,-10.9710693359375,-0.5023193359375,0.313720703125,0.1285400390625,11,0,23
2,24,2,4478,148,-0.151611328125,-0.996826171875,-0.03759765625,-0.11444091796875,-2.00653076171875,3.30352783203125,-0.438232421875,0.4088134765625,-0.0721435546875,11,0,166
2,24,3,4481,148,0.314453125,-0.95751953125,0.008544921875,10.62774658203125,-1.18255615234375,-10.9710693359375,-0.5023193359375,0.313720703125,0.1285400390625,11,0,141
2,24,1,4488,148,0.081787109375,-0.95751953125,0.247314453125,-0.26702880859375,7.080078125,-4.6234130859375,-0.6151123046875,0.13818359375,-0.1575927734375,11,0,200
2,24,3,4492,149,0.32080078125,-0.959716796875,0.015380859375,10.87188720703125,-1.22833251953125,-11.5203857421875,-0.49951171875,0.331787109375,0.1259765625,11,0,160
2,24,2,4493,149,-0.15966796875,-0.991455078125,-0.039306640625,0.2288818359375,-2.31170654296875,3.6468505859375,-0.4454345703125,0.4129638671875,-0.075927734375,11,0,135
2,24,1,4494,149,0.088623046875,-0.9619140625,0.23291015625,-1.24359130859375,7.48443603515625,-4.94384765625,-0.6148681640625,0.1334228515625,-0.1563720703125,11,0,193
2,24,3,4498,150,0.32080078125,-0.959716796875,0.015380859375,10.87188720703125,-1.22833251953125,-11.5203857421875,-0.49951171875,0.331787109375,0.1259765625,11,0,5
2,24,1,4500,150,0.088623046875,-0.9619140625,0.23291015625,-1.24359130859375,7.48443603515625,-4.94384765625,-0.6148681640625,0.1334228515625,-0.1563720703125,11,0,130
2,24,2,4501,150,-0.158935546875,-0.989013671875,-0.039794921875,0.457763671875,-2.5482177734375,3.68499755859375,-0.4383544921875,0.4127197265625,-0.07177734375,11,0,223
2,24,3,4504,151,0.32080078125,-0.959716796875,0.015380859375,10.87188720703125,-1.22833251953125,-11.5203857421875,-0.49951171875,0.331787109375,0.1259765625,11,0,155
2,24,2,4505,151,-0.158935546875,-0.989013671875,-0.039794921875,0.457763671875,-2.5482177734375,3.68499755859375,-0.4383544921875,0.4127197265625,-0.07177734375,11,0,212
2,24,1,4506,151,0.096435546875,-0.9580078125,0.2451171875,-2.22015380859375,6.99615478515625,-5.72967529296875,-0.611328125,0.1329345703125,-0.1644287109375,11,0,15
2,24,1,4510,152,0.096435546875,-0.9580078125,0.2451171875,-2.22015380859375,6.99615478515625,-5.72967529296875,-0.611328125,0.1329345703125,-0.1644287109375,11,0,44
2,24,3,4511,152,0.328857421875,-0.95361328125,0.016357421875,10.5438232421875,-1.7242431640625,-11.81793212890625,-0.5018310546875,0.34130859375,0.122802734375,11,0,118
2,24,2,4512,152,-0.158935546875,-0.989013671875,-0.039794921875,0.457763671875,-2.5482177734375,3.68499755859375,-0.4383544921875,0.4127197265625,-0.07177734375,11,0,212
2,24,3,4517,153,0.328857421875,-0.95361328125,0.016357421875,10.5438232421875,-1.7242431640625,-11.81793212890625,-0.5018310546875,0.34130859375,0.122802734375,11,0,92
2,24,1,4518,153,0.096435546875,-0.9580078125,0.2451171875,-2.22015380859375,6.99615478515625,-5.72967529296875,-0.611328125,0.1329345703125,-0.1644287109375,11,0,117
2,24,2,4519,153,-0.174560546875,-0.97900390625,-0.0361328125,0.8697509765625,-3.22723388671875,3.41796875,-0.4383544921875,0.4049072265625,-0.0714111328125,11,0,192
2,24,1,4523,154,0.104736328125,-0.958251953125,0.242431640625,-2.67791748046875,7.2479248046875,-6.4544677734375,-0.60986328125,0.13330078125,-0.1651611328125,11,0,43
2,24,2,4524,154,-0.174560546875,-0.97900390625,-0.0361328125,0.8697509765625,-3.22723388671875,3.41796875,-0.4383544921875,0.4049072265625,-0.0714111328125,11,0,168
2,24,3,4525,154,0.32373046875,-0.950439453125,0.010009765625,10.9100341796875,-1.15966796875,-11.53564453125,-0.5023193359375,0.3394775390625,0.120849609375,11,0,226
2,24,1,4528,155,0.104736328125,-0.958251953125,0.242431640625,-2.67791748046875,7.2479248046875,-6.4544677734375,-0.60986328125,0.13330078125,-0.1651611328125,11,0,158
2,24,2,4529,155,-0.174560546875,-0.97900390625,-0.0361328125,0.8697509765625,-3.22723388671875,3.41796875,-0.4383544921875,0.4049072265625,-0.0714111328125,11,0,136
2,24,3,4530,155,0.32373046875,-0.950439453125,0.010009765625,10.9100341796875,-1.15966796875,-11.53564453125,-0.5023193359375,0.3394775390625,0.120849609375,11,0,177
2,24,3,4536,156,0.32373046875,-0.950439453125,0.010009765625,10.9100341796875,-1.15966796875,-11.53564453125,-0.5023193359375,0.3394775390625,0.120849609375,11,0,251
2,24,1,4537,156,0.104736328125,-0.958251953125,0.242431640625,-2.67791748046875,7.2479248046875,-6.4544677734375,-0.60986328125,0.13330078125,-0.1651611328125,11,0,29
2,24,2,4538,156,-0.16845703125,-0.9775390625,-0.04736328125,1.19781494140625,-3.47137451171875,2.99072265625,-0.4417724609375,0.413330078125,-0.0762939453125,11,0,10
2,24,3,4542,157,0.34619140625,-0.940673828125,0.04248046875,9.307861328125,-1.7547607421875,-11.1541748046875,-0.505615234375,0.320556640625,0.1190185546875,11,0,140
2,24,2,4543,157,-0.16845703125,-0.9775390625,-0.04736328125,1.19781494140625,-3.47137451171875,2.99072265625,-0.4417724609375,0.413330078125,-0.0762939453125,11,0,112
2,24,1,4544,157,0.11083984375,-0.954345703125,0.23779296875,-2.13623046875,6.79779052734375,-6.73675537109375,-0.613525390625,0.12744140625,-0.1558837890625,11,0,129
2,24,1,4547,158,0.11083984375,-0.954345703125,0.23779296875,-2.13623046875,6.79779052734375,-6.73675537109375,-0.613525390625,0.12744140625,-0.1558837890625,11,0,34
2,24,2,4548,158,-0.16845703125,-0.9775390625,-0.04736328125,1.19781494140625,-3.47137451171875,2.99072265625,-0.4417724609375,0.413330078125,-0.0762939453125,11,0,230
2,24,3,4549,158,0.34619140625,-0.940673828125,0.04248046875,9.307861328125,-1.7547607421875,-11.1541748046875,-0.505615234375,0.320556640625,0.1190185546875,11,0,26
2,24,3,4556,159,0.34619140625,-0.940673828125,0.04248046875,9.307861328125,-1.7547607421875,-11.1541748046875,-0.505615234375,0.320556640625,0.1190185546875,11,0,77
2,24,2,4557,159,-0.169189453125,-0.979736328125,-0.04150390625,1.53350830078125,-3.82232666015625,2.54058837890625,-0.435302734375,0.41455078125,-0.070068359375,11,0,122
2,24,1,4559,159,0.11083984375,-0.954345703125,0.23779296875,-2.13623046875,6.79779052734375,-6.73675537109375,-0.613525390625,0.12744140625,-0.1558837890625,11,0,41
2,24,1,4562,160,0.104248046875,-0.94580078125,0.2294921875,-2.23541259765625,6.16455078125,-7.10296630859375,-0.6136474609375,0.1297607421875,-0.1700439453125,11,0,12
2,24,3,4563,160,0.330322265625,-0.943603515625,0.038818359375,10.040283203125,-1.54876708984375,-10.80322265625,-0.5057373046875,0.344970703125,0.1239013671875,11,0,175
2,24,2,4564,160,-0.169189453125,-0.979736328125,-0.04150390625,1.53350830078125,-3.82232666015625,2.54058837890625,-0.435302734375,0.41455078125,-0.070068359375,11,0,237
2,24,1,4570,161,0.104248046875,-0.94580078125,0.2294921875,-2.23541259765625,6.16455078125,-7.10296630859375,-0.6136474609375,0.1297607421875,-0.1700439453125,11,0,225
2,24,3,4571,161,0.330322265625,-0.943603515625,0.038818359375,10.040283203125,-1.54876708984375,-10.80322265625,-0.5057373046875,0.344970703125,0.1239013671875,11,0,66
2,24,2,4573,161,-0.165283203125,-0.98291015625,-0.0390625,1.678466796875,-4.6234130859375,2.2430419921875,-0.43408203125,0.4127197265625,-0.0693359375,11,0,119
2,24,2,4576,162,-0.165283203125,-0.98291015625,-0.0390625,1.678466796875,-4.6234130859375,2.2430419921875,-0.43408203125,0.4127197265625,-0.0693359375,11,0,62
2,24,1,4577,162,0.087158203125,-0.954345703125,0.235107421875,-2.34222412109375,5.706787109375,-7.14874267578125,-0.61181640625,0.117919921875,-0.1602783203125,11,0,247
2,24,3,4578,162,0.341796875,-0.9345703125,0.032958984375,8.81195068359375,-2.55584716796875,-10.44464111328125,-0.50244140625,0.327880859375,0.1175537109375,11,0,91
2,24,2,4582,163,-0.165283203125,-0.98291015625,-0.0390625,1.678466796875,-4.6234130859375,2.2430419921875,-0.43408203125,0.4127197265625,-0.0693359375,11,0,141
2,24,1,4583,163,0.087158203125,-0.954345703125,0.235107421875,-2.34222412109375,5.706787109375,-7.14874267578125,-0.61181640625,0.117919921875,-0.1602783203125,11,0,68
2,24,3,4584,163,0.341796875,-0.9345703125,0.032958984375,8.81195068359375,-2.55584716796875,-10.44464111328125,-0.50244140625,0.327880859375,0.1175537109375,11,0,197
2,24,3,4587,164,0.341796875,-0.9345703125,0.032958984375,8.81195068359375,-2.55584716796875,-10.44464111328125,-0.50244140625,0.327880859375,0.1175537109375,11,0,254
2,24,1,4588,164,0.087158203125,-0.954345703125,0.235107421875,-2.34222412109375,5.706787109375,-7.14874267578125,-0.61181640625,0.117919921875,-0.1602783203125,11,0,180
2,24,2,4589,164,-0.167724609375,-0.982177734375,-0.041259765625,1.8463134765625,-4.913330078125,2.18963623046875,-0.439453125,0.413818359375,-0.07373046875,11,0,25
2,24,2,4593,165,-0.167724609375,-0.982177734375,-0.041259765625,1.8463134765625,-4.913330078125,2.18963623046875,-0.439453125,0.413818359375,-0.07373046875,11,0,131
2,24,3,4594,165,0.344482421875,-0.940673828125,0.038330078125,8.758544921875,-3.25775146484375,-10.223388671875,-0.5113525390625,0.330322265625,0.11572265625,11,0,249
2,24,1,4596,165,0.081298828125,-0.955078125,0.23974609375,-2.84576416015625,4.7760009765625,-7.4615478515625,-0.6080322265625,0.1300048828125,-0.1697998046875,11,0,148
2,24,2,4601,166,-0.167724609375,-0.982177734375,-0.041259765625,1.8463134765625,-4.913330078125,2.18963623046875,-0.439453125,0.413818359375,-0.07373046875,11,0,34
2,24,3,4602,166,0.344482421875,-0.940673828125,0.038330078125,8.758544921875,-3.25775146484375,-10.223388671875,-0.5113525390625,0.330322265625,0.11572265625,11,0,88
2,24,1,4603,166,0.081298828125,-0.955078125,0.23974609375,-2.84576416015625,4.7760009765625,-7.4615478515625,-0.6080322265625,0.1300048828125,-0.1697998046875,11,0,26
2,24,3,4606,167,0.344482421875,-0.940673828125,0.038330078125,8.758544921875,-3.25775146484375,-10.223388671875,-0.5113525390625,0.330322265625,0.11572265625,11,0,152
2,24,2,4607,167,-0.167236328125,-0.98583984375,-0.039794921875,2.06756591796875,-5.11932373046875,2.38037109375,-0.438720703125,0.414306640625,-0.0703125,11,0,233
2,24,1,4608,167,0.081298828125,-0.955078125,0.23974609375,-2.84576416015625,4.7760009765625,-7.4615478515625,-0.6080322265625,0.1300048828125,-0.1697998046875,11,0,22
2,24,1,4612,168,0.080322265625,-0.95751953125,0.234619140625,-4.03594970703125,4.0283203125,-7.4615478515625,-0.6112060546875,0.1328125,-0.1671142578125,11,0,184
2,24,3,4613,168,0.3505859375,-0.94384765625,0.031005859375,8.15582275390625,-3.509521484375,-9.918212890625,-0.505615234375,0.32666015625,0.1171875,11,0,173
2,24,2,4614,168,-0.167236328125,-0.98583984375,-0.039794921875,2.06756591796875,-5.11932373046875,2.38037109375,-0.438720703125,0.414306640625,-0.0703125,11,0,117
2,24,2,4618,169,-0.165771484375,-0.9853515625,-0.043212890625,2.47955322265625,-5.07354736328125,2.31170654296875,-0.4342041015625,0.4150390625,-0.0723876953125,11,0,244
2,24,1,4619,169,0.080322265625,-0.95751953125,0.234619140625,-4.03594970703125,4.0283203125,-7.4615478515625,-0.6112060546875,0.1328125,-0.1671142578125,11,0,122
2,24,3,4621,169,0.3505859375,-0.94384765625,0.031005859375,8.15582275390625,-3.509521484375,-9.918212890625,-0.505615234375,0.32666015625,0.1171875,11,0,64
2,24,2,4624,170,-0.165771484375,-0.9853515625,-0.043212890625,2.47955322265625,-5.07354736328125,2.31170654296875,-0.4342041015625,0.4150390625,-0.0723876953125,11,0,183
2,24,3,4625,170,0.3505859375,-0.94384765625,0.031005859375,8.15582275390625,-3.509521484375,-9.918212890625,-0.505615234375,0.32666015625,0.1171875,11,0,150
2,24,1,4626,170,0.080322265625,-0.95751953125,0.234619140625,-4.03594970703125,4.0283203125,-7.4615478515625,-0.6112060546875,0.1328125,-0.1671142578125,11,0,240
2,24,1,4630,171,0.0791015625,-0.955078125,0.243408203125,-5.47027587890625,3.85284423828125,-7.11822509765625,-0.611083984375,0.1171875,-0.157470703125,11,0,123
2,24,2,4631,171,-0.165771484375,-0.9853515625,-0.043212890625,2.47955322265625,-5.07354736328125,2.31170654296875,-0.4342041015625,0.4150390625,-0.0723876953125,11,0,190
2,24,3,4632,171,0.35205078125,-0.947509765625,0.03271484375,7.57598876953125,-3.57818603515625,-9.55963134765625,-0.5145263671875,0.3233642578125,0.114013671875,11,0,120
2,24,2,4636,172,-0.16015625,-0.984619140625,-0.04736328125,2.5787353515625,-5.0811767578125,2.64739990234375,-0.4298095703125,0.41162109375,-0.0738525390625,11,0,227
2,24,3,4637,172,0.35205078125,-0.947509765625,0.03271484375,7.57598876953125,-3.57818603515625,-9.55963134765625,-0.5145263671875,0.3233642578125,0.114013671875,11,0,214
2,24,1,4639,172,0.0791015625,-0.955078125,0.243408203125,-5.47027587890625,3.85284423828125,-7.11822509765625,-0.611083984375,0.1171875,-0.157470703125,11,0,248
2,24,2,4644,173,-0.16015625,-0.984619140625,-0.04736328125,2.5787353515625,-5.0811767578125,2.64739990234375,-0.4298095703125,0.41162109375,-0.0738525390625,11,0,186
2,24,3,4645,173,0.354248046875,-0.948486328125,0.042236328125,6.87408447265625,-3.3721923828125,-9.1552734375,-0.5091552734375,0.3231201171875,0.114990234375,11,0,243
2,24,1,4647,173,0.089111328125,-0.956298828125,0.2412109375,-5.98907470703125,3.74603271484375,-5.7830810546875,-0.61669921875,0.1268310546875,-0.15869140625,11,0,13
2,24,3,4651,174,0.354248046875,-0.948486328125,0.042236328125,6.87408447265625,-3.3721923828125,-9.1552734375,-0.5091552734375,0.3231201171875,0.114990234375,11,0,199
2,24,1,4652,174,0.089111328125,-0.956298828125,0.2412109375,-5.98907470703125,3.74603271484375,-5.7830810546875,-0.61669921875,0.1268310546875,-0.15869140625,11,0,101
2,24,2,4654,174,-0.170654296875,-0.9833984375,-0.0517578125,2.83050537109375,-4.79888916015625,2.685546875,-0.4344482421875,0.4061279296875,-0.072998046875,11,0,55
2,24,2,4660,175,-0.170654296875,-0.9833984375,-0.0517578125,2.83050537109375,-4.79888916015625,2.685546875,-0.4344482421875,0.4061279296875,-0.072998046875,11,0,56
2,24,1,4661,175,0.089111328125,-0.956298828125,0.2412109375,-5.98907470703125,3.74603271484375,-5.7830810546875,-0.61669921875,0.1268310546875,-0.15869140625,11,0,163
2,24,3,4662,175,0.351318359375,-0.947021484375,0.04248046875,6.46209716796875,-3.80706787109375,-9.20867919921875,-0.5147705078125,0.326416015625,0.114013671875,11,0,47
2,24,2,4673,176,-0.17578125,-0.982177734375,-0.06103515625,3.56292724609375,-5.37109375,2.69317626953125,-0.433837890625,0.4097900390625,-0.0665283203125,11,0,247
2,24,1,4674,176,0.08349609375,-0.962890625,0.243408203125,-6.05010986328125,3.44085693359375,-4.50897216796875,-0.6064453125,0.127685546875,-0.173583984375,11,0,243
2,24,3,4675,176,0.351318359375,-0.947021484375,0.04248046875,6.46209716796875,-3.80706787109375,-9.20867919921875,-0.5147705078125,0.326416015625,0.114013671875,11,0,38
2,24,2,4679,177,-0.17578125,-0.982177734375,-0.06103515625,3.56292724609375,-5.37109375,2.69317626953125,-0.433837890625,0.4097900390625,-0.0665283203125,11,0,68
2,24,3,4680,177,0.36279296875,-0.935791015625,0.032470703125,5.9356689453125,-4.1961669921875,-9.0789794921875,-0.5133056640625,0.3388671875,0.1119384765625,11,0,223
2,24,1,4681,177,0.093017578125,-0.96826171875,0.236083984375,-6.05010986328125,3.71551513671875,-3.35693359375,-0.611083984375,0.1318359375,-0.16015625,11,0,206
2,24,2,4685,178,-0.1767578125,-0.976318359375,-0.039794921875,4.17327880859375,-5.3558349609375,2.66265869140625,-0.435791015625,0.406494140625,-0.068115234375,11,0,20
2,24,1,4686,178,0.093017578125,-0.96826171875,0.236083984375,-6.05010986328125,3.71551513671875,-3.35693359375,-0.611083984375,0.1318359375,-0.16015625,11,0,139
2,24,3,4687,178,0.36279296875,-0.935791015625,0.032470703125,5.9356689453125,-4.1961669921875,-9.0789794921875,-0.5133056640625,0.3388671875,0.1119384765625,11,0,154
2,24,3,4691,179,0.36279296875,-0.935791015625,0.032470703125,5.9356689453125,-4.1961669921875,-9.0789794921875,-0.5133056640625,0.3388671875,0.1119384765625,11,0,0
2,24,1,4692,179,0.093017578125,-0.96826171875,0.236083984375,-6.05010986328125,3.71551513671875,-3.35693359375,-0.611083984375,0.1318359375,-0.16015625,11,0,132
2,24,2,4693,179,-0.1767578125,-0.976318359375,-0.039794921875,4.17327880859375,-5.3558349609375,2.66265869140625,-0.435791015625,0.406494140625,-0.068115234375,11,0,104
2,24,2,4697,180,-0.1767578125,-0.976318359375,-0.039794921875,4.17327880859375,-5.3558349609375,2.66265869140625,-0.435791015625,0.406494140625,-0.068115234375,11,0,183
2,24,3,4698,180,0.374267578125,-0.92724609375,0.04443359375,5.33294677734375,-4.3487548828125,-8.61358642578125,-0.5147705078125,0.3377685546875,0.114013671875,11,0,215
2,24,1,4699,180,0.1083984375,-0.966064453125,0.235595703125,-6.73675537109375,4.21142578125,-2.1514892578125,-0.611572265625,0.1187744140625,-0.154296875,11,0,194
2,24,1,4703,181,0.1083984375,-0.966064453125,0.235595703125,-6.73675537109375,4.21142578125,-2.1514892578125,-0.611572265625,0.1187744140625,-0.154296875,11,0,2
2,24,3,4704,181,0.374267578125,-0.92724609375,0.04443359375,5.33294677734375,-4.3487548828125,-8.61358642578125,-0.5147705078125,0.3377685546875,0.114013671875,11,0,253
2,24,2,4706,181,-0.179931640625,-0.980224609375,-0.049072265625,4.46319580078125,-5.56182861328125,2.25830078125,-0.435791015625,0.4146728515625,-0.0682373046875,11,0,253
2,24,3,4709,182,0.374267578125,-0.92724609375,0.04443359375,5.33294677734375,-4.3487548828125,-8.61358642578125,-0.5147705078125,0.3377685546875,0.114013671875,11,0,203
2,24,1,4710,182,0.1083984375,-0.966064453125,0.235595703125,-6.73675537109375,4.21142578125,-2.1514892578125,-0.611572265625,0.1187744140625,-0.154296875,11,0,173
2,24,2,4711,182,-0.179931640625,-0.980224609375,-0.049072265625,4.46319580078125,-5.56182861328125,2.25830078125,-0.435791015625,0.4146728515625,-0.0682373046875,11,0,203
2,24,2,4715,183,-0.179931640625,-0.980224609375,-0.049072265625,4.46319580078125,-5.56182861328125,2.25830078125,-0.435791015625,0.4146728515625,-0.0682373046875,11,0,192
2,24,1,4716,183,0.110107421875,-0.97802734375,0.232666015625,-6.95037841796875,4.31060791015625,-1.3885498046875,-0.6099853515625,0.134521484375,-0.1697998046875,11,0,236
2,24,3,4719,183,0.376953125,-0.930419921875,0.04443359375,4.55474853515625,-3.76129150390625,-7.7972412109375,-0.5184326171875,0.341796875,0.1126708984375,11,0,177
2,24,2,4722,184,-0.18701171875,-0.97998046875,-0.042724609375,4.46319580078125,-5.950927734375,2.1514892578125,-0.432861328125,0.4033203125,-0.07373046875,11,0,162
2,24,1,4723,184,0.110107421875,-0.97802734375,0.232666015625,-6.95037841796875,4.31060791015625,-1.3885498046875,-0.6099853515625,0.134521484375,-0.1697998046875,11,0,92
2,24,3,4724,184,0.376953125,-0.930419921875,0.04443359375,4.55474853515625,-3.76129150390625,-7.7972412109375,-0.5184326171875,0.341796875,0.1126708984375,11,0,231
2,24,2,4728,185,-0.18701171875,-0.97998046875,-0.042724609375,4.46319580078125,-5.950927734375,2.1514892578125,-0.432861328125,0.4033203125,-0.07373046875,11,0,60
2,24,1,4729,185,0.110107421875,-0.97802734375,0.232666015625,-6.95037841796875,4.31060791015625,-1.3885498046875,-0.6099853515625,0.134521484375,-0.1697998046875,11,0,194
2,24,3,4730,185,0.376953125,-0.930419921875,0.04443359375,4.55474853515625,-3.76129150390625,-7.7972412109375,-0.5184326171875,0.341796875,0.1126708984375,11,0,159
2,24,2,4738,186,-0.191162109375,-0.975341796875,-0.041015625,4.6539306640625,-6.439208984375,1.7242431640625,-0.4324951171875,0.4136962890625,-0.0787353515625,11,0,139
2,24,3,4739,186,0.3681640625,-0.92578125,0.041259765625,3.36456298828125,-3.47137451171875,-7.14111328125,-0.51513671875,0.3377685546875,0.1182861328125,11,0,74
2,24,1,4740,186,0.10693359375,-0.988525390625,0.2353515625,-6.8511962890625,3.448486328125,-1.3275146484375,-0.6029052734375,0.134033203125,-0.1697998046875,11,0,185
2,24,2,4744,187,-0.191162109375,-0.975341796875,-0.041015625,4.6539306640625,-6.439208984375,1.7242431640625,-0.4324951171875,0.4136962890625,-0.0787353515625,11,0,21
2,24,3,4745,187,0.3681640625,-0.92578125,0.041259765625,3.36456298828125,-3.47137451171875,-7.14111328125,-0.51513671875,0.3377685546875,0.1182861328125,11,0,212
2,24,1,4747,187,0.10693359375,-0.988525390625,0.2353515625,-6.8511962890625,3.448486328125,-1.3275146484375,-0.6029052734375,0.134033203125,-0.1697998046875,11,0,123
2,24,1,4754,188,0.0986328125,-0.9892578125,0.24072265625,-5.71441650390625,2.105712890625,-1.800537109375,-0.6060791015625,0.135009765625,-0.1522216796875,11,0,9
2,24,2,4756,188,-0.195068359375,-0.97216796875,-0.04931640625,4.89044189453125,-6.93511962890625,0.98419189453125,-0.4266357421875,0.40771484375,-0.0748291015625,11,0,144
2,24,3,4758,188,0.378662109375,-0.92041015625,0.048095703125,2.23541259765625,-3.997802734375,-6.35528564453125,-0.517333984375,0.3394775390625,0.113037109375,11,0,227
2,24,3,4765,189,0.38232421875,-0.92333984375,0.048095703125,1.68609619140625,-4.49371337890625,-5.2642822265625,-0.5198974609375,0.3382568359375,0.1107177734375,11,0,76
2,24,1,4766,189,0.0986328125,-0.9892578125,0.24072265625,-5.71441650390625,2.105712890625,-1.800537109375,-0.6060791015625,0.135009765625,-0.1522216796875,11,0,2
2,24,2,4767,189,-0.195068359375,-0.97216796875,-0.04931640625,4.89044189453125,-6.93511962890625,0.98419189453125,-0.4266357421875,0.40771484375,-0.0748291015625,11,0,180
2,24,3,4772,190,0.38232421875,-0.92333984375,0.048095703125,1.68609619140625,-4.49371337890625,-5.2642822265625,-0.5198974609375,0.3382568359375,0.1107177734375,11,0,227
2,24,2,4773,190,-0.1875,-0.970458984375,-0.02978515625,5.3253173828125,-7.0343017578125,0.34332275390625,-0.43408203125,0.409912109375,-0.072265625,11,0,154
2,24,1,4774,190,0.088623046875,-0.991943359375,0.226806640625,-5.0201416015625,1.7547607421875,-2.6092529296875,-0.6083984375,0.137451171875,-0.165283203125,11,0,3
2,24,2,4778,191,-0.1875,-0.970458984375,-0.02978515625,5.3253173828125,-7.0343017578125,0.34332275390625,-0.43408203125,0.409912109375,-0.072265625,11,0,88
2,24,1,4779,191,0.088623046875,-0.991943359375,0.226806640625,-5.0201416015625,1.7547607421875,-2.6092529296875,-0.6083984375,0.137451171875,-0.165283203125,11,0,178
2,24,3,4780,191,0.38232421875,-0.92333984375,0.048095703125,1.68609619140625,-4.49371337890625,-5.2642822265625,-0.5198974609375,0.3382568359375,0.1107177734375,11,0,14
2,24,2,4783,192,-0.1875,-0.970458984375,-0.02978515625,5.3253173828125,-7.0343017578125,0.34332275390625,-0.43408203125,0.409912109375,-0.072265625,11,0,204
2,24,3,4784,192,0.375,-0.921630859375,0.04052734375,0.7781982421875,-4.79888916015625,-4.302978515625,-0.5164794921875,0.330810546875,0.1131591796875,11,0,211
2,24,1,4785,192,0.093505859375,-0.985107421875,0.226806640625,-4.35638427734375,1.67083740234375,-2.716064453125,-0.6068115234375,0.1343994140625,-0.1571044921875,11,0,166
2,24,1,4789,193,0.093505859375,-0.985107421875,0.226806640625,-4.35638427734375,1.67083740234375,-2.716064453125,-0.6068115234375,0.1343994140625,-0.1571044921875,11,0,102
2,24,2,4790,193,-0.193603515625,-0.975341796875,-0.0478515625,5.4168701171875,-7.293701171875,-0.46539306640625,-0.4320068359375,0.4100341796875,-0.07666015625,11,0,226
2,24,3,4791,193,0.375,-0.921630859375,0.04052734375,0.7781982421875,-4.79888916015625,-4.302978515625,-0.5164794921875,0.330810546875,0.1131591796875,11,0,218
2,24,2,4794,194,-0.193603515625,-0.975341796875,-0.0478515625,5.4168701171875,-7.293701171875,-0.46539306640625,-0.4320068359375,0.4100341796875,-0.07666015625,11,0,165
2,24,1,4795,194,0.093505859375,-0.985107421875,0.226806640625,-4.35638427734375,1.67083740234375,-2.716064453125,-0.6068115234375,0.1343994140625,-0.1571044921875,11,0,82
2,24,3,4796,194,0.375,-0.921630859375,0.04052734375,0.7781982421875,-4.79888916015625,-4.302978515625,-0.5164794921875,0.330810546875,0.1131591796875,11,0,178
2,24,1,4802,195,0.087890625,-0.98486328125,0.218017578125,-3.21197509765625,1.15203857421875,-2.227783203125,-0.605712890625,0.1363525390625,-0.16552734375,11,0,229
2,24,2,4804,195,-0.185546875,-0.9775390625,-0.044189453125,5.7373046875,-7.8582763671875,-0.86212158203125,-0.4332275390625,0.408203125,-0.076904296875,11,0,250
2,24,3,4806,195,0.37890625,-0.925537109375,0.030517578125,0.30517578125,-4.92095947265625,-3.631591796875,-0.518798828125,0.3258056640625,0.111083984375,11,0,222
2,24,1,4809,196,0.087890625,-0.98486328125,0.218017578125,-3.21197509765625,1.15203857421875,-2.227783203125,-0.605712890625,0.1363525390625,-0.16552734375,11,0,21
2,24,2,4810,196,-0.185546875,-0.9775390625,-0.044189453125,5.7373046875,-7.8582763671875,-0.86212158203125,-0.4332275390625,0.408203125,-0.076904296875,11,0,86
2,24,3,4811,196,0.37890625,-0.925537109375,0.030517578125,0.30517578125,-4.92095947265625,-3.631591796875,-0.518798828125,0.3258056640625,0.111083984375,11,0,187
2,24,2,4815,197,-0.185546875,-0.9775390625,-0.044189453125,5.7373046875,-7.8582763671875,-0.86212158203125,-0.4332275390625,0.408203125,-0.076904296875,11,0,44
2,24,1,4816,197,0.087890625,-0.98486328125,0.218017578125,-3.21197509765625,1.15203857421875,-2.227783203125,-0.605712890625,0.1363525390625,-0.16552734375,11,0,211
2,24,3,4817,197,0.37890625,-0.925537109375,0.030517578125,0.30517578125,-4.92095947265625,-3.631591796875,-0.518798828125,0.3258056640625,0.111083984375,11,0,180
2,24,1,4822,198,0.095703125,-0.985107421875,0.240966796875,-2.26593017578125,-0.03814697265625,-1.21307373046875,-0.6065673828125,0.1263427734375,-0.1597900390625,11,0,131
2,24,2,4823,198,-0.184326171875,-0.9775390625,-0.04150390625,6.34765625,-8.38470458984375,-1.25885009765625,-0.432373046875,0.4111328125,-0.0772705078125,11,0,78
2,24,3,4824,198,0.37841796875,-0.9169921875,0.041015625,-0.1068115234375,-5.43212890625,-2.62451171875,-0.517578125,0.3369140625,0.1156005859375,11,0,178
2,24,3,4827,199,0.37841796875,-0.9169921875,0.041015625,-0.1068115234375,-5.43212890625,-2.62451171875,-0.517578125,0.3369140625,0.1156005859375,11,0,93
2,24,1,4831,199,0.095703125,-0.985107421875,0.240966796875,-2.26593017578125,-0.03814697265625,-1.21307373046875,-0.6065673828125,0.1263427734375,-0.1597900390625,11,0,212
2,24,2,4833,199,-0.184326171875,-0.9775390625,-0.04150390625,6.34765625,-8.38470458984375,-1.25885009765625,-0.432373046875,0.4111328125,-0.0772705078125,11,0,73
2,24,3,4836,200,0.375244140625,-0.927001953125,0.032470703125,-0.5950927734375,-5.28717041015625,-1.434326171875,-0.51318359375,0.3370361328125,0.11376953125,11,0,151
2,24,1,4837,200,0.08837890625,-0.986328125,0.2353515625,-1.16729736328125,-1.0223388671875,-0.55694580078125,-0.606689453125,0.134765625,-0.166015625,11,0,195
2,24,2,4839,200,-0.18603515625,-0.9794921875,-0.0390625,6.256103515625,-7.94219970703125,-1.220703125,-0.4307861328125,0.4111328125,-0.077880859375,11,0,129
2,24,3,4843,201,0.375244140625,-0.927001953125,0.032470703125,-0.5950927734375,-5.28717041015625,-1.434326171875,-0.51318359375,0.3370361328125,0.11376953125,11,0,85
2,24,2,4844,201,-0.18603515625,-0.9794921875,-0.0390625,6.256103515625,-7.94219970703125,-1.220703125,-0.4307861328125,0.4111328125,-0.077880859375,11,0,165
2,24,1,4845,201,0.08837890625,-0.986328125,0.2353515625,-1.16729736328125,-1.0223388671875,-0.55694580078125,-0.606689453125,0.134765625,-0.166015625,11,0,46
2,24,1,4849,202,0.08837890625,-0.986328125,0.2353515625,-1.16729736328125,-1.0223388671875,-0.55694580078125,-0.606689453125,0.134765625,-0.166015625,11,0,248
2,24,2,4850,202,-0.18603515625,-0.9794921875,-0.0390625,6.256103515625,-7.94219970703125,-1.220703125,-0.4307861328125,0.4111328125,-0.077880859375,11,0,0
2,24,3,4851,202,0.375244140625,-0.927001953125,0.032470703125,-0.5950927734375,-5.28717041015625,-1.434326171875,-0.51318359375,0.3370361328125,0.11376953125,11,0,101
2,24,1,4854,203,0.084228515625,-0.983154296875,0.233154296875,-0.7781982421875,-0.93841552734375,0.152587890625,-0.60693359375,0.1343994140625,-0.1602783203125,11,0,231
2,24,3,4855,203,0.37744140625,-0.9208984375,0.034912109375,-1.0986328125,-5.9661865234375,-0.6561279296875,-0.5166015625,0.336669921875,0.1142578125,11,0,247
2,24,2,4859,203,-0.18359375,-0.978759765625,-0.0390625,6.683349609375,-8.087158203125,-1.495361328125,-0.43603515625,0.406005859375,-0.0726318359375,11,0,88
2,24,2,4865,204,-0.18359375,-0.978759765625,-0.0390625,6.683349609375,-8.087158203125,-1.495361328125,-0.43603515625,0.406005859375,-0.0726318359375,11,0,70
2,24,1,4866,204,0.084228515625,-0.983154296875,0.233154296875,-0.7781982421875,-0.93841552734375,0.152587890625,-0.60693359375,0.1343994140625,-0.1602783203125,11,0,167
2,24,3,4867,204,0.37744140625,-0.9208984375,0.034912109375,-1.0986328125,-5.9661865234375,-0.6561279296875,-0.5166015625,0.336669921875,0.1142578125,11,0,183
2,24,3,4873,205,0.37890625,-0.9248046875,0.042236328125,-1.4190673828125,-5.950927734375,0.18310546875,-0.5196533203125,0.337890625,0.121337890625,11,0,82
2,24,1,4874,205,0.087890625,-0.983642578125,0.226806640625,-0.52642822265625,-1.3885498046875,0.7171630859375,-0.6016845703125,0.139404296875,-0.167724609375,11,0,182
2,24,2,4875,205,-0.18359375,-0.978759765625,-0.0390625,6.683349609375,-8.087158203125,-1.495361328125,-0.43603515625,0.406005859375,-0.0726318359375,11,0,216
2,24,3,4885,206,0.37890625,-0.9248046875,0.042236328125,-1.4190673828125,-5.950927734375,0.18310546875,-0.5196533203125,0.337890625,0.121337890625,11,0,132
2,24,2,4886,206,-0.193115234375,-0.98046875,-0.046875,6.78253173828125,-7.9498291015625,-1.953125,-0.4365234375,0.4066162109375,-0.0755615234375,11,0,206
2,24,1,4888,206,0.087890625,-0.983642578125,0.226806640625,-0.52642822265625,-1.3885498046875,0.7171630859375,-0.6016845703125,0.139404296875,-0.167724609375,11,0,62
2,24,1,4891,207,0.093994140625,-0.983642578125,0.234619140625,-0.20599365234375,-1.68609619140625,0.9307861328125,-0.6058349609375,0.1370849609375,-0.1656494140625,11,0,203
2,24,3,4892,207,0.379150390625,-0.923095703125,0.033935546875,-2.2735595703125,-6.439208984375,1.15966796875,-0.513671875,0.3350830078125,0.1177978515625,11,0,169
2,24,2,4893,207,-0.192626953125,-0.97119140625,-0.037109375,6.95037841796875,-8.0413818359375,-2.288818359375,-0.433837890625,0.41064453125,-0.0728759765625,11,0,106
2,24,2,4901,208,-0.192626953125,-0.97119140625,-0.037109375,6.95037841796875,-8.0413818359375,-2.288818359375,-0.433837890625,0.41064453125,-0.0728759765625,11,0,190
2,24,3,4903,208,0.379150390625,-0.923095703125,0.033935546875,-2.2735595703125,-6.439208984375,1.15966796875,-0.513671875,0.3350830078125,0.1177978515625,11,0,180
2,24,1,4904,208,0.093994140625,-0.983642578125,0.234619140625,-0.20599365234375,-1.68609619140625,0.9307861328125,-0.6058349609375,0.1370849609375,-0.1656494140625,11,0,29
2,24,2,4908,209,-0.1953125,-0.975830078125,-0.041259765625,7.354736328125,-8.53729248046875,-3.0059814453125,-0.429931640625,0.4127197265625,-0.07861328125,11,0,153
2,24,3,4909,209,0.374267578125,-0.922607421875,0.038330078125,-2.98309326171875,-6.35528564453125,2.1820068359375,-0.51611328125,0.335693359375,0.115234375,11,0,196
2,24,1,4910,209,0.095703125,-0.974365234375,0.23486328125,0.58746337890625,-2.31170654296875,1.3427734375,-0.605224609375,0.134765625,-0.1697998046875,11,0,62
2,24,2,4914,210,-0.1953125,-0.975830078125,-0.041259765625,7.354736328125,-8.53729248046875,-3.0059814453125,-0.429931640625,0.4127197265625,-0.07861328125,11,0,60
2,24,1,4915,210,0.095703125,-0.974365234375,0.23486328125,0.58746337890625,-2.31170654296875,1.3427734375,-0.605224609375,0.134765625,-0.1697998046875,11,0,82
2,24,3,4917,210,0.374267578125,-0.922607421875,0.038330078125,-2.98309326171875,-6.35528564453125,2.1820068359375,-0.51611328125,0.335693359375,0.115234375,11,0,244
2,24,3,4922,211,0.374267578125,-0.922607421875,0.038330078125,-2.98309326171875,-6.35528564453125,2.1820068359375,-0.51611328125,0.335693359375,0.115234375,11,0,54
2,24,2,4923,211,-0.1953125,-0.975830078125,-0.041259765625,7.354736328125,-8.53729248046875,-3.0059814453125,-0.429931640625,0.4127197265625,-0.07861328125,11,0,107
2,24,1,4926,211,0.095947265625,-0.9814453125,0.227294921875,1.28173828125,-2.655029296875,1.53350830078125,-0.606689453125,0.13720703125,-0.1661376953125,11,0,144
2,24,3,4931,212,0.3720703125,-0.927490234375,0.0380859375,-3.74603271484375,-6.75201416015625,2.87628173828125,-0.5133056640625,0.3272705078125,0.1273193359375,11,0,150
2,24,2,4932,212,-0.19384765625,-0.972412109375,-0.03515625,7.33184814453125,-8.84246826171875,-3.8604736328125,-0.4420166015625,0.4093017578125,-0.076416015625,11,0,217
2,24,1,4938,212,0.095947265625,-0.9814453125,0.227294921875,1.28173828125,-2.655029296875,1.53350830078125,-0.606689453125,0.13720703125,-0.1661376953125,11,0,122
2,24,2,4943,213,-0.1923828125,-0.97216796875,-0.038330078125,7.4920654296875,-8.68988037109375,-4.3792724609375,-0.4345703125,0.40869140625,-0.0865478515625,11,0,209
2,24,1,4944,213,0.1015625,-0.9775390625,0.2236328125,1.45721435546875,-2.9754638671875,1.83868408203125,-0.6082763671875,0.1375732421875,-0.1617431640625,11,0,174
2,24,3,4945,213,0.373046875,-0.924072265625,0.037353515625,-4.4708251953125,-7.354736328125,3.5858154296875,-0.5145263671875,0.333984375,0.1151123046875,11,0,90
2,24,3,4948,214,0.373046875,-0.924072265625,0.037353515625,-4.4708251953125,-7.354736328125,3.5858154296875,-0.5145263671875,0.333984375,0.1151123046875,11,0,108
2,24,1,4949,214,0.1015625,-0.9775390625,0.2236328125,1.45721435546875,-2.9754638671875,1.83868408203125,-0.6082763671875,0.1375732421875,-0.1617431640625,11,0,152
2,24,2,4955,214,-0.1923828125,-0.97216796875,-0.038330078125,7.4920654296875,-8.68988037109375,-4.3792724609375,-0.4345703125,0.40869140625,-0.0865478515625,11,0,204
2,24,3,4959,215,0.3740234375,-0.92333984375,0.026123046875,-5.54656982421875,-6.9732666015625,4.82940673828125,-0.51611328125,0.334228515625,0.12255859375,11,0,85
2,24,1,4960,215,0.09619140625,-0.97900390625,0.2265625,2.05230712890625,-3.18145751953125,2.18963623046875,-0.6048583984375,0.1253662109375,-0.1622314453125,11,0,90
2,24,2,4961,215,-0.1923828125,-0.97216796875,-0.038330078125,7.4920654296875,-8.68988037109375,-4.3792724609375,-0.4345703125,0.40869140625,-0.0865478515625,11,0,230
2,24,2,4964,216,-0.12890625,-0.9755859375,-0.029052734375,7.9345703125,-9.002685546875,-4.82177734375,-0.4298095703125,0.4075927734375,-0.0765380859375,11,0,221
2,24,1,4965,216,0.09619140625,-0.97900390625,0.2265625,2.05230712890625,-3.18145751953125,2.18963623046875,-0.6048583984375,0.1253662109375,-0.1622314453125,11,0,195
2,24,3,4966,216,0.3740234375,-0.92333984375,0.026123046875,-5.54656982421875,-6.9732666015625,4.82940673828125,-0.51611328125,0.334228515625,0.12255859375,11,0,85
2,24,2,4970,217,-0.12890625,-0.9755859375,-0.029052734375,7.9345703125,-9.002685546875,-4.82177734375,-0.4298095703125,0.4075927734375,-0.0765380859375,11,0,165
2,24,3,4971,217,0.3740234375,-0.92333984375,0.026123046875,-5.54656982421875,-6.9732666015625,4.82940673828125,-0.51611328125,0.334228515625,0.12255859375,11,0,228
2,24,1,4972,217,0.09619140625,-0.97900390625,0.2265625,2.05230712890625,-3.18145751953125,2.18963623046875,-0.6048583984375,0.1253662109375,-0.1622314453125,11,0,148
2,24,1,4977,218,0.093994140625,-0.979248046875,0.22314453125,3.0975341796875,-3.31878662109375,2.6702880859375,-0.6007080078125,0.1328125,-0.164794921875,11,0,253
2,24,3,4980,218,0.366943359375,-0.93994140625,0.032958984375,-6.44683837890625,-6.7138671875,5.9814453125,-0.5025634765625,0.335205078125,0.1236572265625,11,0,120
2,24,2,4981,218,-0.1845703125,-0.9775390625,-0.03173828125,8.38470458984375,-9.49859619140625,-5.39398193359375,-0.4356689453125,0.391357421875,-0.0814208984375,11,0,34
2,24,3,4984,219,0.366943359375,-0.93994140625,0.032958984375,-6.44683837890625,-6.7138671875,5.9814453125,-0.5025634765625,0.335205078125,0.1236572265625,11,0,115
2,24,1,4985,219,0.093994140625,-0.979248046875,0.22314453125,3.0975341796875,-3.31878662109375,2.6702880859375,-0.6007080078125,0.1328125,-0.164794921875,11,0,16
2,24,2,4986,219,-0.1845703125,-0.9775390625,-0.03173828125,8.38470458984375,-9.49859619140625,-5.39398193359375,-0.4356689453125,0.391357421875,-0.0814208984375,11,0,224
2,24,3,4989,220,0.366943359375,-0.93994140625,0.032958984375,-6.44683837890625,-6.7138671875,5.9814453125,-0.5025634765625,0.335205078125,0.1236572265625,11,0,221
2,24,1,4990,220,0.093994140625,-0.979248046875,0.22314453125,3.0975341796875,-3.31878662109375,2.6702880859375,-0.6007080078125,0.1328125,-0.164794921875,11,0,205
2,24,2,4991,220,-0.1845703125,-0.9775390625,-0.03173828125,8.38470458984375,-9.49859619140625,-5.39398193359375,-0.4356689453125,0.391357421875,-0.0814208984375,11,0,78
2,24,3,4994,221,0.36181640625,-0.936767578125,0.031494140625,-7.080078125,-6.34765625,6.6070556640625,-0.51513671875,0.3170166015625,0.130615234375,11,0,194
2,24,2,4995,221,-0.185791015625,-0.974853515625,-0.0302734375,8.7127685546875,-9.34600830078125,-5.79833984375,-0.4324951171875,0.4049072265625,-0.073974609375,11,0,122
2,24,1,4997,221,0.09912109375,-0.980224609375,0.226318359375,3.83758544921875,-3.53240966796875,3.01361083984375,-0.603515625,0.1361083984375,-0.1514892578125,11,0,45
2,24,3,5000,222,0.36181640625,-0.936767578125,0.031494140625,-7.080078125,-6.34765625,6.6070556640625,-0.51513671875,0.3170166015625,0.130615234375,11,0,16
2,24,1,5001,222,0.09912109375,-0.980224609375,0.226318359375,3.83758544921875,-3.53240966796875,3.01361083984375,-0.603515625,0.1361083984375,-0.1514892578125,11,0,106
2,24,2,5002,222,-0.185791015625,-0.974853515625,-0.0302734375,8.7127685546875,-9.34600830078125,-5.79833984375,-0.4324951171875,0.4049072265625,-0.073974609375,11,0,97
2,24,3,5006,223,0.36181640625,-0.936767578125,0.031494140625,-7.080078125,-6.34765625,6.6070556640625,-0.51513671875,0.3170166015625,0.130615234375,11,0,163
2,24,2,5007,223,-0.185791015625,-0.974853515625,-0.0302734375,8.7127685546875,-9.34600830078125,-5.79833984375,-0.4324951171875,0.4049072265625,-0.073974609375,11,0,27
2,24,1,5008,223,0.09912109375,-0.980224609375,0.226318359375,3.83758544921875,-3.53240966796875,3.01361083984375,-0.603515625,0.1361083984375,-0.1514892578125,11,0,172
2,24,2,5014,224,-0.18115234375,-0.980712890625,-0.030029296875,8.97216796875,-9.2010498046875,-5.86700439453125,-0.40673828125,0.4090576171875,-0.08056640625,11,0,70
2,24,3,5015,224,0.360595703125,-0.945556640625,0.0107421875,-7.89642333984375,-6.90460205078125,7.36236572265625,-0.5130615234375,0.3387451171875,0.1239013671875,11,0,118
2,24,1,5016,224,0.0986328125,-0.9833984375,0.227294921875,4.3487548828125,-3.387451171875,3.66973876953125,-0.607177734375,0.12255859375,-0.156005859375,11,0,14
2,24,2,5020,225,-0.18115234375,-0.980712890625,-0.030029296875,8.97216796875,-9.2010498046875,-5.86700439453125,-0.40673828125,0.4090576171875,-0.08056640625,11,0,216
2,24,3,5021,225,0.360595703125,-0.945556640625,0.0107421875,-7.89642333984375,-6.90460205078125,7.36236572265625,-0.5130615234375,0.3387451171875,0.1239013671875,11,0,232
2,24,1,5022,225,0.0986328125,-0.9833984375,0.227294921875,4.3487548828125,-3.387451171875,3.66973876953125,-0.607177734375,0.12255859375,-0.156005859375,11,0,189
2,24,2,5025,226,-0.17578125,-0.987548828125,-0.03369140625,9.033203125,-9.4451904296875,-6.15692138671875,-0.4345703125,0.4093017578125,-0.084228515625,11,0,33
2,24,1,5026,226,0.093505859375,-0.987548828125,0.225830078125,4.8980712890625,-3.65447998046875,4.40216064453125,-0.601806640625,0.135009765625,-0.15283203125,11,0,104
2,24,3,5029,226,0.35595703125,-0.94091796875,0.009521484375,-8.53729248046875,-5.8746337890625,8.30078125,-0.5113525390625,0.338623046875,0.1270751953125,11,0,11
2,24,1,5034,227,0.093505859375,-0.987548828125,0.225830078125,4.8980712890625,-3.65447998046875,4.40216064453125,-0.601806640625,0.135009765625,-0.15283203125,11,0,133
2,24,2,5035,227,-0.17578125,-0.987548828125,-0.03369140625,9.033203125,-9.4451904296875,-6.15692138671875,-0.4345703125,0.4093017578125,-0.084228515625,11,0,191
2,24,3,5038,227,0.35595703125,-0.94091796875,0.009521484375,-8.53729248046875,-5.8746337890625,8.30078125,-0.5113525390625,0.338623046875,0.1270751953125,11,0,47
2,24,3,5041,228,0.35595703125,-0.94091796875,0.009521484375,-8.53729248046875,-5.8746337890625,8.30078125,-0.5113525390625,0.338623046875,0.1270751953125,11,0,168
2,24,1,5042,228,0.093505859375,-0.987548828125,0.225830078125,4.8980712890625,-3.65447998046875,4.40216064453125,-0.601806640625,0.135009765625,-0.15283203125,11,0,45
2,24,2,5045,228,-0.17578125,-0.987548828125,-0.03369140625,9.033203125,-9.4451904296875,-6.15692138671875,-0.4345703125,0.4093017578125,-0.084228515625,11,0,130
2,24,3,5052,229,0.350830078125,-0.94482421875,-0.00146484375,-8.93402099609375,-5.79071044921875,8.636474609375,-0.509033203125,0.32373046875,0.1285400390625,11,0,54
2,24,1,5054,229,0.0986328125,-0.989501953125,0.2236328125,5.6610107421875,-4.37164306640625,4.37164306640625,-0.609375,0.1378173828125,-0.1561279296875,11,0,79
2,24,2,5055,229,-0.177001953125,-0.979248046875,-0.01806640625,9.1705322265625,-9.4451904296875,-6.17218017578125,-0.432861328125,0.4091796875,-0.0859375,11,0,152
2,24,3,5058,230,0.350830078125,-0.94482421875,-0.00146484375,-8.93402099609375,-5.79071044921875,8.636474609375,-0.509033203125,0.32373046875,0.1285400390625,11,0,252
2,24,2,5059,230,-0.177001953125,-0.979248046875,-0.01806640625,9.1705322265625,-9.4451904296875,-6.17218017578125,-0.432861328125,0.4091796875,-0.0859375,11,0,33
2,24,1,5060,230,0.0986328125,-0.989501953125,0.2236328125,5.6610107421875,-4.37164306640625,4.37164306640625,-0.609375,0.1378173828125,-0.1561279296875,11,0,99
2,24,2,5064,231,-0.177978515625,-0.9833984375,-0.0205078125,9.43756103515625,-9.3841552734375,-6.3934326171875,-0.4412841796875,0.41162109375,-0.087158203125,11,0,57
2,24,3,5065,231,0.343017578125,-0.9462890625,0.000244140625,-9.27734375,-5.79833984375,9.16290283203125,-0.51171875,0.3388671875,0.123779296875,11,0,240
2,24,1,5066,231,0.09619140625,-0.986328125,0.229736328125,5.8135986328125,-4.06646728515625,4.669189453125,-0.608154296875,0.140625,-0.1563720703125,11,0,117
2,24,1,5071,232,0.09619140625,-0.986328125,0.229736328125,5.8135986328125,-4.06646728515625,4.669189453125,-0.608154296875,0.140625,-0.1563720703125,11,0,236
2,24,3,5072,232,0.343017578125,-0.9462890625,0.000244140625,-9.27734375,-5.79833984375,9.16290283203125,-0.51171875,0.3388671875,0.123779296875,11,0,213
2,24,2,5073,232,-0.177978515625,-0.9833984375,-0.0205078125,9.43756103515625,-9.3841552734375,-6.3934326171875,-0.4412841796875,0.41162109375,-0.087158203125,11,0,28
2,24,2,5078,233,-0.18212890625,-0.978515625,-0.022705078125,9.765625,-9.7198486328125,-6.744384765625,-0.435791015625,0.40478515625,-0.0838623046875,11,0,248
2,24,3,5079,233,0.343017578125,-0.9462890625,0.000244140625,-9.27734375,-5.79833984375,9.16290283203125,-0.51171875,0.3388671875,0.123779296875,11,0,220
2,24,1,5080,233,0.095703125,-0.982666015625,0.226806640625,6.1187744140625,-4.486083984375,4.5013427734375,-0.6033935546875,0.1259765625,-0.1563720703125,11,0,98
2,24,3,5085,234,0.34423828125,-0.941650390625,0.0,-9.70458984375,-5.25665283203125,9.98687744140625,-0.511962890625,0.3338623046875,0.132568359375,11,0,210
2,24,2,5086,234,-0.18212890625,-0.978515625,-0.022705078125,9.765625,-9.7198486328125,-6.744384765625,-0.435791015625,0.40478515625,-0.0838623046875,11,0,89
2,24,1,5087,234,0.095703125,-0.982666015625,0.226806640625,6.1187744140625,-4.486083984375,4.5013427734375,-0.6033935546875,0.1259765625,-0.1563720703125,11,0,39
2,24,2,5091,235,-0.18212890625,-0.978515625,-0.022705078125,9.765625,-9.7198486328125,-6.744384765625,-0.435791015625,0.40478515625,-0.0838623046875,11,0,92
2,24,3,5092,235,0.34423828125,-0.941650390625,0.0,-9.70458984375,-5.25665283203125,9.98687744140625,-0.511962890625,0.3338623046875,0.132568359375,11,0,49
2,24,1,5094,235,0.095703125,-0.982666015625,0.226806640625,6.1187744140625,-4.486083984375,4.5013427734375,-0.6033935546875,0.1259765625,-0.1563720703125,11,0,196
2,24,1,5097,236,0.091064453125,-0.9736328125,0.224609375,6.591796875,-5.40924072265625,4.241943359375,-0.6021728515625,0.1363525390625,-0.1649169921875,11,0,180
2,24,2,5098,236,-0.17236328125,-0.978271484375,-0.0224609375,10.31494140625,-9.70458984375,-7.2174072265625,-0.435791015625,0.407470703125,-0.087646484375,11,0,107
2,24,3,5099,236,0.34765625,-0.942138671875,-0.010009765625,-10.1776123046875,-5.5389404296875,10.55145263671875,-0.503173828125,0.3316650390625,0.1348876953125,11,0,42
2,24,3,5104,237,0.34765625,-0.942138671875,-0.010009765625,-10.1776123046875,-5.5389404296875,10.55145263671875,-0.503173828125,0.3316650390625,0.1348876953125,11,0,159
2,24,1,5105,237,0.091064453125,-0.9736328125,0.224609375,6.591796875,-5.40924072265625,4.241943359375,-0.6021728515625,0.1363525390625,-0.1649169921875,11,0,200
2,24,2,5106,237,-0.17236328125,-0.978271484375,-0.0224609375,10.31494140625,-9.70458984375,-7.2174072265625,-0.435791015625,0.407470703125,-0.087646484375,11,0,23
2,24,2,5111,238,-0.1787109375,-0.98193359375,-0.010986328125,10.47515869140625,-9.2620849609375,-7.74383544921875,-0.4371337890625,0.407958984375,-0.0838623046875,11,0,192
2,24,1,5112,238,0.091064453125,-0.9736328125,0.224609375,6.591796875,-5.40924072265625,4.241943359375,-0.6021728515625,0.1363525390625,-0.1649169921875,11,0,211
2,24,3,5113,238,0.34765625,-0.942138671875,-0.010009765625,-10.1776123046875,-5.5389404296875,10.55145263671875,-0.503173828125,0.3316650390625,0.1348876953125,11,0,132
2,24,3,5116,239,0.343505859375,-0.943115234375,-0.01513671875,-10.3912353515625,-4.81414794921875,11.42120361328125,-0.5064697265625,0.3212890625,0.1434326171875,11,0,80
2,24,2,5117,239,-0.1787109375,-0.98193359375,-0.010986328125,10.47515869140625,-9.2620849609375,-7.74383544921875,-0.4371337890625,0.407958984375,-0.0838623046875,11,0,94
2,24,1,5122,239,0.093017578125,-0.972900390625,0.228271484375,7.171630859375,-6.40869140625,4.150390625,-0.603515625,0.1337890625,-0.1558837890625,11,0,225
2,24,2,5126,240,-0.1787109375,-0.98193359375,-0.010986328125,10.47515869140625,-9.2620849609375,-7.74383544921875,-0.4371337890625,0.407958984375,-0.0838623046875,11,0,39
2,24,1,5127,240,0.093017578125,-0.972900390625,0.228271484375,7.171630859375,-6.40869140625,4.150390625,-0.603515625,0.1337890625,-0.1558837890625,11,0,22
2,24,3,5128,240,0.343505859375,-0.943115234375,-0.01513671875,-10.3912353515625,-4.81414794921875,11.42120361328125,-0.5064697265625,0.3212890625,0.1434326171875,11,0,205
2,24,3,5132,241,0.33203125,-0.951904296875,-0.015380859375,-10.6964111328125,-3.814697265625,12.04681396484375,-0.4954833984375,0.3375244140625,0.1439208984375,11,0,103
2,24,1,5133,241,0.087646484375,-0.973388671875,0.232421875,8.270263671875,-6.82830810546875,4.1046142578125,-0.6055908203125,0.1396484375,-0.153076171875,11,0,119
2,24,2,5135,241,-0.1748046875,-0.979736328125,-0.00634765625,10.49041748046875,-10.4217529296875,-8.81195068359375,-0.4373779296875,0.4100341796875,-0.0865478515625,11,0,173
2,24,1,5138,242,0.087646484375,-0.973388671875,0.232421875,8.270263671875,-6.82830810546875,4.1046142578125,-0.6055908203125,0.1396484375,-0.153076171875,11,0,104
2,24,3,5139,242,0.33203125,-0.951904296875,-0.015380859375,-10.6964111328125,-3.814697265625,12.04681396484375,-0.4954833984375,0.3375244140625,0.1439208984375,11,0,120
2,24,2,5140,242,-0.1748046875,-0.979736328125,-0.00634765625,10.49041748046875,-10.4217529296875,-8.81195068359375,-0.4373779296875,0.4100341796875,-0.0865478515625,11,0,84
2,24,2,5145,243,-0.1748046875,-0.979736328125,-0.00634765625,10.49041748046875,-10.4217529296875,-8.81195068359375,-0.4373779296875,0.4100341796875,-0.0865478515625,11,0,229
2,24,1,5146,243,0.08740234375,-0.974609375,0.233154296875,10.0555419921875,-7.49969482421875,4.28009033203125,-0.602783203125,0.1397705078125,-0.1590576171875,11,0,66
2,24,3,5147,243,0.33203125,-0.951904296875,-0.015380859375,-10.6964111328125,-3.814697265625,12.04681396484375,-0.4954833984375,0.3375244140625,0.1439208984375,11,0,149
2,24,2,5151,244,-0.156494140625,-0.985107421875,-0.00830078125,10.68115234375,-10.70404052734375,-9.25445556640625,-0.441650390625,0.41064453125,-0.0870361328125,11,0,17
2,24,3,5152,244,0.319580078125,-0.956298828125,-0.037841796875,-10.47515869140625,-3.68499755859375,12.44354248046875,-0.5003662109375,0.3363037109375,0.1304931640625,11,0,18
2,24,1,5154,244,0.08740234375,-0.974609375,0.233154296875,10.0555419921875,-7.49969482421875,4.28009033203125,-0.602783203125,0.1397705078125,-0.1590576171875,11,0,207
2,24,1,5158,245,0.08740234375,-0.974609375,0.233154296875,10.0555419921875,-7.49969482421875,4.28009033203125,-0.602783203125,0.1397705078125,-0.1590576171875,11,0,15
2,24,2,5159,245,-0.156494140625,-0.985107421875,-0.00830078125,10.68115234375,-10.70404052734375,-9.25445556640625,-0.441650390625,0.41064453125,-0.0870361328125,11,0,72
2,24,3,5160,245,0.319580078125,-0.956298828125,-0.037841796875,-10.47515869140625,-3.68499755859375,12.44354248046875,-0.5003662109375,0.3363037109375,0.1304931640625,11,0,255
2,24,3,5165,246,0.319580078125,-0.956298828125,-0.037841796875,-10.47515869140625,-3.68499755859375,12.44354248046875,-0.5003662109375,0.3363037109375,0.1304931640625,11,0,201
2,24,2,5166,246,-0.162841796875,-0.987548828125,0.00244140625,10.650634765625,-9.86480712890625,-9.71221923828125,-0.4422607421875,0.4368896484375,-0.0882568359375,11,0,215
2,24,1,5167,246,0.08154296875,-0.977294921875,0.240234375,10.76507568359375,-8.38470458984375,4.72259521484375,-0.6021728515625,0.138671875,-0.155517578125,11,0,116
2,24,2,5171,247,-0.162841796875,-0.987548828125,0.00244140625,10.650634765625,-9.86480712890625,-9.71221923828125,-0.4422607421875,0.4368896484375,-0.0882568359375,11,0,247
2,24,1,5172,247,0.08154296875,-0.977294921875,0.240234375,10.76507568359375,-8.38470458984375,4.72259521484375,-0.6021728515625,0.138671875,-0.155517578125,11,0,193
2,24,3,5173,247,0.3232421875,-0.970947265625,-0.04296875,-10.4217529296875,-3.35693359375,12.8021240234375,-0.4952392578125,0.333984375,0.130126953125,11,0,241
2,24,3,5176,248,0.3232421875,-0.970947265625,-0.04296875,-10.4217529296875,-3.35693359375,12.8021240234375,-0.4952392578125,0.333984375,0.130126953125,11,0,163
2,24,2,5177,248,-0.162841796875,-0.987548828125,0.00244140625,10.650634765625,-9.86480712890625,-9.71221923828125,-0.4422607421875,0.4368896484375,-0.0882568359375,11,0,138
2,24,1,5180,248,0.08154296875,-0.977294921875,0.240234375,10.76507568359375,-8.38470458984375,4.72259521484375,-0.6021728515625,0.138671875,-0.155517578125,11,0,207
2,24,3,5186,249,0.322998046875,-0.96875,-0.066162109375,-9.48333740234375,-2.92205810546875,12.24517822265625,-0.4984130859375,0.33642578125,0.1326904296875,11,0,173
2,24,1,5188,249,0.085205078125,-0.978759765625,0.243408203125,11.5203857421875,-9.11712646484375,4.87518310546875,-0.6021728515625,0.1268310546875,-0.1617431640625,11,0,28
2,24,2,5189,249,-0.16015625,-0.99169921875,0.00048828125,10.5743408203125,-10.4827880859375,-9.796142578125,-0.4404296875,0.4056396484375,-0.0902099609375,11,0,111
2,24,2,5192,250,-0.16015625,-0.99169921875,0.00048828125,10.5743408203125,-10.4827880859375,-9.796142578125,-0.4404296875,0.4056396484375,-0.0902099609375,11,0,146
2,24,1,5196,250,0.085205078125,-0.978759765625,0.243408203125,11.5203857421875,-9.11712646484375,4.87518310546875,-0.6021728515625,0.1268310546875,-0.1617431640625,11,0,189
2,24,3,5197,250,0.322998046875,-0.96875,-0.066162109375,-9.48333740234375,-2.92205810546875,12.24517822265625,-0.4984130859375,0.33642578125,0.1326904296875,11,0,35
2,24,3,5201,251,0.279541015625,-0.986083984375,-0.049560546875,-9.69696044921875,-1.54876708984375,11.810302734375,-0.490966796875,0.3392333984375,0.1407470703125,11,0,169
2,24,1,5202,251,0.0859375,-0.96875,0.243896484375,11.749267578125,-10.30731201171875,5.0201416015625,-0.6031494140625,0.1302490234375,-0.158447265625,11,0,164
2,24,2,5203,251,-0.15478515625,-0.988525390625,-0.000732421875,10.42938232421875,-10.31494140625,-10.6964111328125,-0.4442138671875,0.408203125,-0.0904541015625,11,0,185
2,24,1,5207,252,0.0859375,-0.96875,0.243896484375,11.749267578125,-10.30731201171875,5.0201416015625,-0.6031494140625,0.1302490234375,-0.158447265625,11,0,10
2,24,3,5208,252,0.279541015625,-0.986083984375,-0.049560546875,-9.69696044921875,-1.54876708984375,11.810302734375,-0.490966796875,0.3392333984375,0.1407470703125,11,0,42
2,24,2,5209,252,-0.15478515625,-0.988525390625,-0.000732421875,10.42938232421875,-10.31494140625,-10.6964111328125,-0.4442138671875,0.408203125,-0.0904541015625,11,0,243
2,24,1,5212,253,0.0849609375,-0.967529296875,0.2412109375,12.12310791015625,-11.25335693359375,5.6610107421875,-0.60107421875,0.1405029296875,-0.16748046875,11,0,237
2,24,3,5213,253,0.279541015625,-0.986083984375,-0.049560546875,-9.69696044921875,-1.54876708984375,11.810302734375,-0.490966796875,0.3392333984375,0.1407470703125,11,0,80
2,24,2,5214,253,-0.15478515625,-0.988525390625,-0.000732421875,10.42938232421875,-10.31494140625,-10.6964111328125,-0.4442138671875,0.408203125,-0.0904541015625,11,0,250
2,24,3,5218,254,0.2587890625,-0.980712890625,-0.0595703125,-8.23974609375,-5.0811767578125,7.0343017578125,-0.4976806640625,0.3260498046875,0.1375732421875,11,0,41
2,24,2,5219,254,-0.15283203125,-0.98388671875,0.005615234375,10.2691650390625,-10.8184814453125,-10.9710693359375,-0.4437255859375,0.399169921875,-0.08544921875,11,0,81
2,24,1,5220,254,0.0849609375,-0.967529296875,0.2412109375,12.12310791015625,-11.25335693359375,5.6610107421875,-0.60107421875,0.1405029296875,-0.16748046875,11,0,248
2,24,2,5224,255,-0.15283203125,-0.98388671875,0.005615234375,10.2691650390625,-10.8184814453125,-10.9710693359375,-0.4437255859375,0.399169921875,-0.08544921875,11,0,117
2,24,1,5225,255,0.0849609375,-0.967529296875,0.2412109375,12.12310791015625,-11.25335693359375,5.6610107421875,-0.60107421875,0.1405029296875,-0.16748046875,11,0,73
2,24,3,5226,255,0.2587890625,-0.980712890625,-0.0595703125,-8.23974609375,-5.0811767578125,7.0343017578125,-0.4976806640625,0.3260498046875,0.1375732421875,11,0,196
2,24,1,5231,256,0.08154296875,-0.9599609375,0.23828125,13.0462646484375,-10.99395751953125,5.9356689453125,-0.6055908203125,0.138427734375,-0.169921875,11,0,237
2,24,2,5232,256,-0.15283203125,-0.98388671875,0.005615234375,10.2691650390625,-10.8184814453125,-10.9710693359375,-0.4437255859375,0.399169921875,-0.08544921875,11,0,39
2,24,3,5284,257,0.25732421875,-0.970947265625,-0.046142578125,-6.8817138671875,-5.07354736328125,2.96783447265625,-0.49755859375,0.3380126953125,0.1429443359375,11,0,250
2,24,1,5285,257,0.088134765625,-0.92822265625,0.257568359375,14.03045654296875,-13.29803466796875,3.91387939453125,-0.5997314453125,0.137451171875,-0.1627197265625,11,0,16
2,24,2,5286,257,-0.142822265625,-0.98486328125,0.00927734375,10.03265380859375,-10.223388671875,-11.749267578125,-0.4447021484375,0.4063720703125,-0.086181640625,11,0,245
2,24,1,5287,257,0.088134765625,-0.92822265625,0.257568359375,14.03045654296875,-13.29803466796875,3.91387939453125,-0.5997314453125,0.137451171875,-0.1627197265625,11,0,99
2,24,3,5290,258,0.2587890625,-0.97216796875,-0.047119140625,-7.171630859375,-7.25555419921875,0.74005126953125,-0.496337890625,0.34228515625,0.1468505859375,11,0,23
2,24,1,5291,258,0.088134765625,-0.92822265625,0.257568359375,14.03045654296875,-13.29803466796875,3.91387939453125,-0.5997314453125,0.137451171875,-0.1627197265625,11,0,36
2,24,2,5292,258,-0.142822265625,-0.977294921875,0.012939453125,9.95635986328125,-10.42938232421875,-12.237548828125,-0.44873046875,0.404296875,-0.0888671875,11,0,16
2,24,2,5301,259,-0.142822265625,-0.977294921875,0.012939453125,9.95635986328125,-10.42938232421875,-12.237548828125,-0.44873046875,0.404296875,-0.0888671875,11,0,214
2,24,3,5302,259,0.2587890625,-0.97216796875,-0.047119140625,-7.171630859375,-7.25555419921875,0.74005126953125,-0.496337890625,0.34228515625,0.1468505859375,11,0,141
2,24,1,5303,259,0.088134765625,-0.92822265625,0.257568359375,14.03045654296875,-13.29803466796875,3.91387939453125,-0.5997314453125,0.137451171875,-0.1627197265625,11,0,190
2,24,2,5307,260,-0.13623046875,-0.97314453125,0.015869140625,10.040283203125,-10.772705078125,-12.054443359375,-0.4500732421875,0.3916015625,-0.086181640625,11,0,83
2,24,3,5310,260,0.269775390625,-0.966064453125,-0.05029296875,-7.04193115234375,-8.47625732421875,-1.2359619140625,-0.4954833984375,0.3409423828125,0.1492919921875,11,0,225
2,24,1,5311,260,0.09033203125,-0.927490234375,0.238525390625,15.23590087890625,-14.16778564453125,3.13568115234375,-0.6024169921875,0.124755859375,-0.1685791015625,11,0,60
2,24,3,5312,260,0.269775390625,-0.966064453125,-0.05029296875,-7.04193115234375,-8.47625732421875,-1.2359619140625,-0.4954833984375,0.3409423828125,0.1492919921875,11,0,65
2,24,1,5315,261,0.09033203125,-0.927490234375,0.238525390625,15.23590087890625,-14.16778564453125,3.13568115234375,-0.6024169921875,0.124755859375,-0.1685791015625,11,0,201
2,24,3,5316,261,0.269775390625,-0.966064453125,-0.05029296875,-7.04193115234375,-8.47625732421875,-1.2359619140625,-0.4954833984375,0.3409423828125,0.1492919921875,11,0,129
2,24,2,5319,261,-0.13623046875,-0.97314453125,0.015869140625,10.040283203125,-10.772705078125,-12.054443359375,-0.4500732421875,0.3916015625,-0.086181640625,11,0,166
2,24,2,5323,262,-0.13720703125,-0.980712890625,0.016845703125,10.4217529296875,-11.20758056640625,-12.19940185546875,-0.44970703125,0.405029296875,-0.0899658203125,11,0,181
2,24,1,5324,262,0.08935546875,-0.93017578125,0.242919921875,14.9078369140625,-15.289306640625,2.60162353515625,-0.5992431640625,0.1390380859375,-0.1571044921875,11,0,106
2,24,3,5325,262,0.294189453125,-0.957763671875,-0.069091796875,-7.0037841796875,-9.674072265625,-2.2125244140625,-0.4957275390625,0.3221435546875,0.1416015625,11,0,211
2,24,3,5329,263,0.294189453125,-0.957763671875,-0.069091796875,-7.0037841796875,-9.674072265625,-2.2125244140625,-0.4957275390625,0.3221435546875,0.1416015625,11,0,73
2,24,1,5332,263,0.08935546875,-0.93017578125,0.242919921875,14.9078369140625,-15.289306640625,2.60162353515625,-0.5992431640625,0.1390380859375,-0.1571044921875,11,0,22
2,24,2,5334,263,-0.13720703125,-0.980712890625,0.016845703125,10.4217529296875,-11.20758056640625,-12.19940185546875,-0.44970703125,0.405029296875,-0.0899658203125,11,0,149
2,24,3,5338,264,0.294189453125,-0.957763671875,-0.069091796875,-7.0037841796875,-9.674072265625,-2.2125244140625,-0.4957275390625,0.3221435546875,0.1416015625,11,0,142
2,24,1,5339,264,0.084228515625,-0.9375,0.241455078125,14.1143798828125,-16.2506103515625,2.62451171875,-0.6036376953125,0.138671875,-0.162841796875,11,0,43
2,24,2,5340,264,-0.130126953125,-0.9912109375,0.0185546875,10.0555419921875,-11.32965087890625,-12.30621337890625,-0.45947265625,0.4029541015625,-0.0865478515625,11,0,39
2,24,1,5343,265,0.084228515625,-0.9375,0.241455078125,14.1143798828125,-16.2506103515625,2.62451171875,-0.6036376953125,0.138671875,-0.162841796875,11,0,235
2,24,3,5344,265,0.293701171875,-0.95556640625,-0.0771484375,-6.7901611328125,-8.75091552734375,-2.1820068359375,-0.4896240234375,0.331787109375,0.1441650390625,11,0,174
2,24,2,5345,265,-0.130126953125,-0.9912109375,0.0185546875,10.0555419921875,-11.32965087890625,-12.30621337890625,-0.45947265625,0.4029541015625,-0.0865478515625,11,0,34
2,24,1,5350,266,0.084228515625,-0.9375,0.241455078125,14.1143798828125,-16.2506103515625,2.62451171875,-0.6036376953125,0.138671875,-0.162841796875,11,0,68
2,24,2,5351,266,-0.130126953125,-0.9912109375,0.0185546875,10.0555419921875,-11.32965087890625,-12.30621337890625,-0.45947265625,0.4029541015625,-0.0865478515625,11,0,221
2,24,3,5352,266,0.293701171875,-0.95556640625,-0.0771484375,-6.7901611328125,-8.75091552734375,-2.1820068359375,-0.4896240234375,0.331787109375,0.1441650390625,11,0,15
2,24,2,5356,267,-0.11474609375,-0.988525390625,0.015869140625,9.91058349609375,-11.4898681640625,-11.8255615234375,-0.4561767578125,0.405029296875,-0.0911865234375,11,0,101
2,24,1,5357,267,0.087890625,-0.9384765625,0.243896484375,13.4429931640625,-17.27294921875,2.81524658203125,-0.6033935546875,0.1396484375,-0.173095703125,11,0,42
2,24,3,5358,267,0.293701171875,-0.95556640625,-0.0771484375,-6.7901611328125,-8.75091552734375,-2.1820068359375,-0.4896240234375,0.331787109375,0.1441650390625,11,0,188
2,24,1,5360,267,0.087890625,-0.9384765625,0.243896484375,13.4429931640625,-17.27294921875,2.81524658203125,-0.6033935546875,0.1396484375,-0.173095703125,11,0,44
2,24,1,5363,268,0.087890625,-0.9384765625,0.243896484375,13.4429931640625,-17.27294921875,2.81524658203125,-0.6033935546875,0.1396484375,-0.173095703125,11,0,23
2,24,2,5364,268,-0.11474609375,-0.988525390625,0.015869140625,9.91058349609375,-11.4898681640625,-11.8255615234375,-0.4561767578125,0.405029296875,-0.0911865234375,11,0,205
2,24,3,5365,268,0.29296875,-0.9541015625,-0.078857421875,-6.8206787109375,-7.92694091796875,-2.471923828125,-0.48876953125,0.329345703125,0.152587890625,11,0,114
2,24,2,5369,269,-0.11474609375,-0.988525390625,0.015869140625,9.91058349609375,-11.4898681640625,-11.8255615234375,-0.4561767578125,0.405029296875,-0.0911865234375,11,0,124
2,24,1,5370,269,0.087890625,-0.9384765625,0.243896484375,13.4429931640625,-17.27294921875,2.81524658203125,-0.6033935546875,0.1396484375,-0.173095703125,11,0,64
2,24,3,5372,269,0.29296875,-0.9541015625,-0.078857421875,-6.8206787109375,-7.92694091796875,-2.471923828125,-0.48876953125,0.329345703125,0.152587890625,11,0,37
2,24,1,5375,270,0.09130859375,-0.941650390625,0.241455078125,12.14599609375,-18.0816650390625,3.5552978515625,-0.6033935546875,0.1290283203125,-0.18115234375,11,0,86
2,24,2,5376,270,-0.10693359375,-0.99951171875,0.022705078125,10.03265380859375,-11.69586181640625,-11.322021484375,-0.455322265625,0.39404296875,-0.0853271484375,11,0,179
2,24,3,5377,270,0.2919921875,-0.960205078125,-0.069580078125,-6.561279296875,-7.32421875,-2.50244140625,-0.487060546875,0.3297119140625,0.1512451171875,11,0,30
2,24,2,5381,271,-0.10693359375,-0.99951171875,0.022705078125,10.03265380859375,-11.69586181640625,-11.322021484375,-0.455322265625,0.39404296875,-0.0853271484375,11,0,201
2,24,1,5382,271,0.09130859375,-0.941650390625,0.241455078125,12.14599609375,-18.0816650390625,3.5552978515625,-0.6033935546875,0.1290283203125,-0.18115234375,11,0,85
2,24,3,5383,271,0.2919921875,-0.960205078125,-0.069580078125,-6.561279296875,-7.32421875,-2.50244140625,-0.487060546875,0.3297119140625,0.1512451171875,11,0,173
2,24,3,5387,272,0.2919921875,-0.960205078125,-0.069580078125,-6.561279296875,-7.32421875,-2.50244140625,-0.487060546875,0.3297119140625,0.1512451171875,11,0,43
2,24,1,5388,272,0.106201171875,-0.953857421875,0.2548828125,11.5203857421875,-18.33343505859375,4.24957275390625,-0.6065673828125,0.125732421875,-0.16357421875,11,0,251
2,24,2,5389,272,-0.10693359375,-0.99951171875,0.022705078125,10.03265380859375,-11.69586181640625,-11.322021484375,-0.455322265625,0.39404296875,-0.0853271484375,11,0,169
2,24,2,5394,273,-0.10888671875,-1.0048828125,0.016357421875,10.2996826171875,-10.7269287109375,-10.27679443359375,-0.4576416015625,0.3912353515625,-0.09033203125,11,0,75
2,24,1,5395,273,0.106201171875,-0.953857421875,0.2548828125,11.5203857421875,-18.33343505859375,4.24957275390625,-0.6065673828125,0.125732421875,-0.16357421875,11,0,168
2,24,3,5396,273,0.290771484375,-0.965576171875,-0.0771484375,-6.5460205078125,-7.5531005859375,-2.72369384765625,-0.4967041015625,0.309326171875,0.147705078125,11,0,111
2,24,2,5399,274,-0.10888671875,-1.0048828125,0.016357421875,10.2996826171875,-10.7269287109375,-10.27679443359375,-0.4576416015625,0.3912353515625,-0.09033203125,11,0,125
2,24,3,5400,274,0.290771484375,-0.965576171875,-0.0771484375,-6.5460205078125,-7.5531005859375,-2.72369384765625,-0.4967041015625,0.309326171875,0.147705078125,11,0,40
2,24,1,5402,274,0.106201171875,-0.953857421875,0.2548828125,11.5203857421875,-18.33343505859375,4.24957275390625,-0.6065673828125,0.125732421875,-0.16357421875,11,0,179
2,24,3,5408,275,0.290771484375,-0.965576171875,-0.0771484375,-6.5460205078125,-7.5531005859375,-2.72369384765625,-0.4967041015625,0.309326171875,0.147705078125,11,0,113
2,24,2,5409,275,-0.11572265625,-0.994873046875,0.018310546875,10.55145263671875,-10.76507568359375,-9.97161865234375,-0.462646484375,0.4036865234375,-0.08544921875,11,0,213
2,24,1,5410,275,0.11767578125,-0.97265625,0.25048828125,11.29913330078125,-18.6767578125,5.1727294921875,-0.6068115234375,0.1220703125,-0.16259765625,11,0,141
2,24,2,5413,276,-0.11572265625,-0.994873046875,0.018310546875,10.55145263671875,-10.76507568359375,-9.97161865234375,-0.462646484375,0.4036865234375,-0.08544921875,11,0,193
2,24,1,5414,276,0.11767578125,-0.97265625,0.25048828125,11.29913330078125,-18.6767578125,5.1727294921875,-0.6068115234375,0.1220703125,-0.16259765625,11,0,153
2,24,3,5415,276,0.298583984375,-0.967529296875,-0.080078125,-6.2255859375,-8.00323486328125,-2.63214111328125,-0.4937744140625,0.309814453125,0.1544189453125,11,0,215
2,24,1,5419,277,0.11767578125,-0.97265625,0.25048828125,11.29913330078125,-18.6767578125,5.1727294921875,-0.6068115234375,0.1220703125,-0.16259765625,11,0,40
2,24,3,5420,277,0.298583984375,-0.967529296875,-0.080078125,-6.2255859375,-8.00323486328125,-2.63214111328125,-0.4937744140625,0.309814453125,0.1544189453125,11,0,243
2,24,2,5421,277,-0.11572265625,-0.994873046875,0.018310546875,10.55145263671875,-10.76507568359375,-9.97161865234375,-0.462646484375,0.4036865234375,-0.08544921875,11,0,44
2,24,1,5425,278,0.112060546875,-0.972412109375,0.259521484375,11.63482666015625,-19.52362060546875,5.2947998046875,-0.607421875,0.13330078125,-0.1749267578125,11,0,122
2,24,2,5426,278,-0.12451171875,-0.984375,0.0234375,10.50567626953125,-10.71929931640625,-9.765625,-0.460693359375,0.400146484375,-0.091064453125,11,0,34
2,24,3,5427,278,0.298583984375,-0.967529296875,-0.080078125,-6.2255859375,-8.00323486328125,-2.63214111328125,-0.4937744140625,0.309814453125,0.1544189453125,11,0,236
2,24,1,5431,279,0.112060546875,-0.972412109375,0.259521484375,11.63482666015625,-19.52362060546875,5.2947998046875,-0.607421875,0.13330078125,-0.1749267578125,11,0,201
2,24,2,5432,279,-0.12451171875,-0.984375,0.0234375,10.50567626953125,-10.71929931640625,-9.765625,-0.460693359375,0.400146484375,-0.091064453125,11,0,188
2,24,3,5433,279,0.29150390625,-0.961669921875,-0.08154296875,-6.12640380859375,-7.2784423828125,-2.72369384765625,-0.4935302734375,0.3087158203125,0.1500244140625,11,0,16
2,24,1,5437,280,0.11181640625,-0.96533203125,0.25927734375,11.17706298828125,-19.73724365234375,5.30242919921875,-0.6043701171875,0.128173828125,-0.165771484375,11,0,184
2,24,3,5438,280,0.29150390625,-0.961669921875,-0.08154296875,-6.12640380859375,-7.2784423828125,-2.72369384765625,-0.4935302734375,0.3087158203125,0.1500244140625,11,0,250
2,24,2,5439,280,-0.12451171875,-0.984375,0.0234375,10.50567626953125,-10.71929931640625,-9.765625,-0.460693359375,0.400146484375,-0.091064453125,11,0,86
2,24,2,5443,281,-0.128662109375,-0.97998046875,0.028076171875,11.322021484375,-11.72637939453125,-10.2996826171875,-0.4608154296875,0.3992919921875,-0.08935546875,11,0,216
2,24,1,5444,281,0.11181640625,-0.96533203125,0.25927734375,11.17706298828125,-19.73724365234375,5.30242919921875,-0.6043701171875,0.128173828125,-0.165771484375,11,0,17
2,24,3,5445,281,0.29150390625,-0.961669921875,-0.08154296875,-6.12640380859375,-7.2784423828125,-2.72369384765625,-0.4935302734375,0.3087158203125,0.1500244140625,11,0,32
2,24,2,5448,282,-0.128662109375,-0.97998046875,0.028076171875,11.322021484375,-11.72637939453125,-10.2996826171875,-0.4608154296875,0.3992919921875,-0.08935546875,11,0,176
2,24,3,5449,282,0.27978515625,-0.9609375,-0.085205078125,-5.828857421875,-7.45391845703125,-2.9296875,-0.49462890625,0.3167724609375,0.1583251953125,11,0,8
2,24,1,5450,282,0.11181640625,-0.96533203125,0.25927734375,11.17706298828125,-19.73724365234375,5.30242919921875,-0.6043701171875,0.128173828125,-0.165771484375,11,0,37
2,24,2,5454,283,-0.128662109375,-0.97998046875,0.028076171875,11.322021484375,-11.72637939453125,-10.2996826171875,-0.4608154296875,0.3992919921875,-0.08935546875,11,0,3
2,24,3,5455,283,0.27978515625,-0.9609375,-0.085205078125,-5.828857421875,-7.45391845703125,-2.9296875,-0.49462890625,0.3167724609375,0.1583251953125,11,0,187
2,24,1,5456,283,0.117431640625,-0.95166015625,0.25146484375,11.31439208984375,-19.41680908203125,5.47027587890625,-0.6070556640625,0.1331787109375,-0.1610107421875,11,0,244
2,24,1,5460,284,0.117431640625,-0.95166015625,0.25146484375,11.31439208984375,-19.41680908203125,5.47027587890625,-0.6070556640625,0.1331787109375,-0.1610107421875,11,0,224
2,24,2,5461,284,-0.14990234375,-0.975830078125,0.021728515625,11.26861572265625,-12.3748779296875,-10.45989990234375,-0.461181640625,0.400634765625,-0.0948486328125,11,0,103
2,24,3,5462,284,0.27978515625,-0.9609375,-0.085205078125,-5.828857421875,-7.45391845703125,-2.9296875,-0.49462890625,0.3167724609375,0.1583251953125,11,0,169
2,24,2,5466,285,-0.14990234375,-0.975830078125,0.021728515625,11.26861572265625,-12.3748779296875,-10.45989990234375,-0.461181640625,0.400634765625,-0.0948486328125,11,0,165
2,24,1,5467,285,0.117431640625,-0.95166015625,0.25146484375,11.31439208984375,-19.41680908203125,5.47027587890625,-0.6070556640625,0.1331787109375,-0.1610107421875,11,0,34
2,24,1,5519,286,0.129150390625,-0.93359375,0.248291015625,12.35198974609375,-19.59991455078125,6.32476806640625,-0.607421875,0.135498046875,-0.15869140625,11,0,244
2,24,3,5520,286,0.28857421875,-0.9619140625,-0.09765625,-4.92095947265625,-8.70513916015625,-3.96728515625,-0.494140625,0.328857421875,0.16064453125,11,0,10
2,24,2,5521,286,-0.0693359375,-1.0029296875,0.060791015625,11.55853271484375,-16.021728515625,-10.82611083984375,-0.466064453125,0.4019775390625,-0.0927734375,11,0,177
2,24,1,5528,287,0.126220703125,-0.94482421875,0.265380859375,12.451171875,-19.55413818359375,6.3018798828125,-0.6083984375,0.134033203125,-0.15966796875,11,0,102
2,24,3,5529,287,0.28857421875,-0.9619140625,-0.09765625,-4.92095947265625,-8.70513916015625,-3.96728515625,-0.494140625,0.328857421875,0.16064453125,11,0,93
2,24,2,5532,287,-0.0693359375,-1.0029296875,0.060791015625,11.55853271484375,-16.021728515625,-10.82611083984375,-0.466064453125,0.4019775390625,-0.0927734375,11,0,0
2,24,1,5535,288,0.126220703125,-0.94482421875,0.265380859375,12.451171875,-19.55413818359375,6.3018798828125,-0.6083984375,0.134033203125,-0.15966796875,11,0,62
2,24,2,5536,288,-0.067138671875,-1.020751953125,0.056884765625,10.894775390625,-11.84844970703125,-9.8724365234375,-0.464599609375,0.40380859375,-0.10546875,11,0,23
2,24,3,5537,288,0.2890625,-0.9599609375,-0.113525390625,-4.8065185546875,-9.2315673828125,-4.5623779296875,-0.4871826171875,0.327392578125,0.1590576171875,11,0,74
2,24,1,5542,289,0.114501953125,-0.953125,0.272216796875,12.9547119140625,-19.49310302734375,5.71441650390625,-0.6070556640625,0.1246337890625,-0.161865234375,11,0,53
2,24,2,5543,289,-0.067138671875,-1.020751953125,0.056884765625,10.894775390625,-11.84844970703125,-9.8724365234375,-0.464599609375,0.40380859375,-0.10546875,11,0,30
2,24,3,5544,289,0.2890625,-0.9599609375,-0.113525390625,-4.8065185546875,-9.2315673828125,-4.5623779296875,-0.4871826171875,0.327392578125,0.1590576171875,11,0,29
2,24,3,5548,290,0.2890625,-0.9599609375,-0.113525390625,-4.8065185546875,-9.2315673828125,-4.5623779296875,-0.4871826171875,0.327392578125,0.1590576171875,11,0,145
2,24,2,5549,290,-0.0791015625,-1.011962890625,0.058837890625,10.09368896484375,-10.32257080078125,-9.16290283203125,-0.466064453125,0.399169921875,-0.09423828125,11,0,121
2,24,1,5551,290,0.114501953125,-0.953125,0.272216796875,12.9547119140625,-19.49310302734375,5.71441650390625,-0.6070556640625,0.1246337890625,-0.161865234375,11,0,46
2,24,3,5554,291,0.29638671875,-0.963134765625,-0.109130859375,-4.6234130859375,-9.27734375,-4.89044189453125,-0.493408203125,0.325927734375,0.1461181640625,11,0,166
2,24,2,5555,291,-0.0791015625,-1.011962890625,0.058837890625,10.09368896484375,-10.32257080078125,-9.16290283203125,-0.466064453125,0.399169921875,-0.09423828125,11,0,144
2,24,1,5556,291,0.114501953125,-0.953125,0.272216796875,12.9547119140625,-19.49310302734375,5.71441650390625,-0.6070556640625,0.1246337890625,-0.161865234375,11,0,155
2,24,2,5559,292,-0.0791015625,-1.011962890625,0.058837890625,10.09368896484375,-10.32257080078125,-9.16290283203125,-0.466064453125,0.399169921875,-0.09423828125,11,0,132
2,24,1,5560,292,0.114501953125,-0.958740234375,0.2822265625,11.63482666015625,-19.47021484375,4.95147705078125,-0.609130859375,0.13232421875,-0.1507568359375,11,0,248
2,24,3,5561,292,0.29638671875,-0.963134765625,-0.109130859375,-4.6234130859375,-9.27734375,-4.89044189453125,-0.493408203125,0.325927734375,0.1461181640625,11,0,86
2,24,3,5567,293,0.29638671875,-0.963134765625,-0.109130859375,-4.6234130859375,-9.27734375,-4.89044189453125,-0.493408203125,0.325927734375,0.1461181640625,11,0,229
2,24,1,5568,293,0.114501953125,-0.958740234375,0.2822265625,11.63482666015625,-19.47021484375,4.95147705078125,-0.609130859375,0.13232421875,-0.1507568359375,11,0,235
2,24,2,5569,293,-0.09130859375,-1.00244140625,0.051513671875,9.46807861328125,-10.32257080078125,-8.72802734375,-0.46826171875,0.39501953125,-0.0950927734375,11,0,36
