PacketType,PayloadLen,DeviceID,Timestamp,PacketID,AccelX,AccelY,AccelZ,GyroX,GyroY,GyroZ,MagX,MagY,MagZ,Flags,Battery,CRC
2,24,2,27731,1,0.0,0.0,0.0,0.0,0.0,0.0,0.0,0.0,0.0,3,0,33
2,24,1,27732,1,0.0,0.0,0.0,0.0,0.0,0.0,0.0,0.0,0.0,3,0,127
2,24,3,27733,1,0.0,0.0,0.0,0.0,0.0,0.0,0.0,0.0,0.0,3,0,155
2,24,3,27736,2,0.0,0.0,0.0,0.0,0.0,0.0,0.0,0.0,0.0,3,0,102
2,24,2,27737,2,0.0,0.0,0.0,0.0,0.0,0.0,0.0,0.0,0.0,3,0,243
2,24,3,27789,3,0.0,0.0,0.0,0.0,0.0,0.0,0.0,0.0,0.0,3,0,83
2,24,2,27790,3,0.0,0.0,0.0,0.0,0.0,0.0,0.0,0.0,0.0,3,0,181
2,24,1,27793,3,0.0,0.0,0.0,0.0,0.0,0.0,0.0,0.0,0.0,3,0,177
2,24,3,27798,4,0.0,0.0,0.0,0.0,0.0,0.0,0.0,0.0,0.0,3,0,50
2,24,1,27799,4,0.0,0.0,0.0,0.0,0.0,0.0,0.0,0.0,0.0,3,0,214
2,24,2,27801,4,0.0,0.0,0.0,0.0,0.0,0.0,0.0,0.0,0.0,3,0,249
2,24,3,27808,5,0.0,0.0,0.0,0.0,0.0,0.0,0.0,0.0,0.0,3,0,53
2,24,2,27809,5,0.0,0.0,0.0,0.0,0.0,0.0,0.0,0.0,0.0,3,0,160
2,24,1,27810,5,0.0,0.0,0.0,0.0,0.0,0.0,0.0,0.0,0.0,3,0,24
2,24,3,27815,6,0.0,0.0,0.0,0.0,0.0,0.0,0.0,0.0,0.0,3,0,112
2,24,2,27816,6,0.0,0.0,0.0,0.0,0.0,0.0,0.0,0.0,0.0,3,0,187
2,24,1,27817,6,0.0,0.0,0.0,0.0,0.0,0.0,0.0,0.0,0.0,3,0,112
2,24,1,27827,7,0.0,0.0,0.0,0.0,0.0,0.0,0.0,0.0,0.0,3,0,127
2,24,3,27828,7,0.0,0.0,0.0,0.0,0.0,0.0,0.0,0.0,0.0,3,0,14
2,24,2,27830,7,0.0,0.0,0.0,0.0,0.0,0.0,0.0,0.0,0.0,3,0,82
2,24,1,27833,8,0.0,0.0,0.0,0.0,0.0,0.0,0.0,0.0,0.0,3,0,2
2,24,3,27834,8,0.0,0.0,0.0,0.0,0.0,0.0,0.0,0.0,0.0,3,0,149
2,24,2,27836,8,0.0,0.0,0.0,0.0,0.0,0.0,0.0,0.0,0.0,3,0,47
2,24,3,27842,9,0.0,0.0,0.0,0.0,0.0,0.0,0.0,0.0,0.0,3,0,134
2,24,2,27843,9,0.0,0.0,0.0,0.0,0.0,0.0,0.0,0.0,0.0,3,0,19
2,24,1,27848,9,0.0,0.0,0.0,0.0,0.0,0.0,0.0,0.0,0.0,3,0,96
2,24,1,27853,10,0.0,0.0,0.0,0.0,0.0,0.0,0.0,0.0,0.0,3,0,86
2,24,2,27854,10,0.0,0.0,0.0,0.0,0.0,0.0,0.0,0.0,0.0,3,0,238
2,24,3,27855,10,0.0,0.0,0.0,0.0,0.0,0.0,0.0,0.0,0.0,3,0,123
2,24,2,27859,11,0.0,0.0,0.0,0.0,0.0,0.0,0.0,0.0,0.0,3,0,206
2,24,3,27860,11,0.0,0.0,0.0,0.0,0.0,0.0,0.0,0.0,0.0,3,0,206
2,24,1,27861,11,0.0,0.0,0.0,0.0,0.0,0.0,0.0,0.0,0.0,3,0,42
2,24,2,27864,12,0.0,0.0,0.0,0.0,0.0,0.0,0.0,0.0,0.0,3,0,62
2,24,1,27866,12,0.0,0.0,0.0,0.0,0.0,0.0,0.0,0.0,0.0,3,0,60
2,24,3,27867,12,0.0,0.0,0.0,0.0,0.0,0.0,0.0,0.0,0.0,3,0,216
2,24,2,27870,13,0.0,0.0,0.0,0.0,0.0,0.0,0.0,0.0,0.0,3,0,141
2,24,1,27871,13,0.0,0.0,0.0,0.0,0.0,0.0,0.0,0.0,0.0,3,0,70
2,24,3,27872,13,0.0,0.0,0.0,0.0,0.0,0.0,0.0,0.0,0.0,3,0,72
2,24,3,27877,14,0.0,0.0,0.0,0.0,0.0,0.0,0.0,0.0,0.0,3,0,126
2,24,1,27878,14,0.0,0.0,0.0,0.0,0.0,0.0,0.0,0.0,0.0,3,0,233
2,24,2,27879,14,0.0,0.0,0.0,0.0,0.0,0.0,0.0,0.0,0.0,3,0,34
2,24,3,27885,15,0.0,0.0,0.0,0.0,0.0,0.0,0.0,0.0,0.0,3,0,147
2,24,2,27887,15,0.0,0.0,0.0,0.0,0.0,0.0,0.0,0.0,0.0,3,0,207
2,24,1,27890,15,0.0,0.0,0.0,0.0,0.0,0.0,0.0,0.0,0.0,3,0,184
2,24,3,27895,16,0.0,0.0,0.0,0.0,0.0,0.0,0.0,0.0,0.0,3,0,17
2,24,2,27896,16,0.0,0.0,0.0,0.0,0.0,0.0,0.0,0.0,0.0,3,0,218
2,24,1,27897,16,0.0,0.0,0.0,0.0,0.0,0.0,0.0,0.0,0.0,3,0,17
2,24,1,27905,17,0.0,0.0,0.0,0.0,0.0,0.0,0.0,0.0,0.0,3,0,168
2,24,3,27906,17,0.0,0.0,0.0,0.0,0.0,0.0,0.0,0.0,0.0,3,0,63
2,24,2,27908,17,0.0,0.0,0.0,0.0,0.0,0.0,0.0,0.0,0.0,3,0,133
2,24,3,27911,18,0.0,0.0,0.0,0.0,0.0,0.0,0.0,0.0,0.0,3,0,9
2,24,2,27913,18,0.0,0.0,0.0,0.0,0.0,0.0,0.0,0.0,0.0,3,0,120
2,24,1,27914,18,0.0,0.0,0.0,0.0,0.0,0.0,0.0,0.0,0.0,3,0,192
2,24,3,27921,19,0.0,0.0,0.0,0.0,0.0,0.0,0.0,0.0,0.0,3,0,43
2,24,2,27923,19,0.0,0.0,0.0,0.0,0.0,0.0,0.0,0.0,0.0,3,0,119
2,24,1,27925,19,0.0,0.0,0.0,0.0,0.0,0.0,0.0,0.0,0.0,3,0,147
2,24,1,27929,20,0.0,0.0,0.0,0.0,0.0,0.0,0.0,0.0,0.0,3,0,76
2,24,3,27930,20,0.0,0.0,0.0,0.0,0.0,0.0,0.0,0.0,0.0,3,0,219
2,24,2,27931,20,0.0,0.0,0.0,0.0,0.0,0.0,0.0,0.0,0.0,3,0,78
2,24,1,27935,21,0.0,0.0,0.0,0.0,0.0,0.0,0.0,0.0,0.0,3,0,255
2,24,3,27936,21,0.0,0.0,0.0,0.0,0.0,0.0,0.0,0.0,0.0,3,0,241
2,24,2,27937,21,0.0,0.0,0.0,0.0,0.0,0.0,0.0,0.0,0.0,3,0,100
2,24,2,27941,22,0.0,0.0,0.0,0.0,0.0,0.0,0.0,0.0,0.0,3,0,232
2,24,3,27942,22,0.0,0.0,0.0,0.0,0.0,0.0,0.0,0.0,0.0,3,0,14
2,24,1,27944,22,0.0,0.0,0.0,0.0,0.0,0.0,0.0,0.0,0.0,3,0,14
2,24,3,27947,23,0.0,0.0,0.0,0.0,0.0,0.0,0.0,0.0,0.0,3,0,191
2,24,2,27949,23,0.0,0.0,0.0,0.0,0.0,0.0,0.0,0.0,0.0,3,0,5
2,24,1,27954,23,0.0,0.0,0.0,0.0,0.0,0.0,0.0,0.0,0.0,3,0,1
2,24,2,27957,24,0.0,0.0,0.0,0.0,0.0,0.0,0.0,0.0,0.0,3,0,154
2,24,3,27959,24,0.0,0.0,0.0,0.0,0.0,0.0,0.0,0.0,0.0,3,0,198
2,24,1,27960,24,0.0,0.0,0.0,0.0,0.0,0.0,0.0,0.0,0.0,3,0,124
2,24,3,27963,25,0.0,0.0,0.0,0.0,0.0,0.0,0.0,0.0,0.0,3,0,205
2,24,2,27964,25,0.0,0.0,0.0,0.0,0.0,0.0,0.0,0.0,0.0,3,0,205
2,24,1,27965,25,0.0,0.0,0.0,0.0,0.0,0.0,0.0,0.0,0.0,3,0,6
2,24,2,27969,26,0.0,0.0,0.0,0.0,0.0,0.0,0.0,0.0,0.0,3,0,206
2,24,3,27970,26,0.0,0.0,0.0,0.0,0.0,0.0,0.0,0.0,0.0,3,0,40
2,24,1,27972,26,0.0,0.0,0.0,0.0,0.0,0.0,0.0,0.0,0.0,3,0,227
2,24,2,27976,27,0.0,0.0,0.0,0.0,0.0,0.0,0.0,0.0,0.0,3,0,153
2,24,3,27977,27,0.0,0.0,0.0,0.0,0.0,0.0,0.0,0.0,0.0,3,0,12
2,24,1,27978,27,0.0,0.0,0.0,0.0,0.0,0.0,0.0,0.0,0.0,3,0,155
2,24,2,27981,28,0.0,0.0,0.0,0.0,0.0,0.0,0.0,0.0,0.0,3,0,55
2,24,1,27982,28,0.0,0.0,0.0,0.0,0.0,0.0,0.0,0.0,0.0,3,0,143
2,24,3,27983,28,0.0,0.0,0.0,0.0,0.0,0.0,0.0,0.0,0.0,3,0,107
2,24,3,27992,29,0.0,0.0,0.0,0.0,0.0,0.0,0.0,0.0,0.0,3,0,243
2,24,2,27993,29,0.0,0.0,0.0,0.0,0.0,0.0,0.0,0.0,0.0,3,0,102
2,24,1,27994,29,0.0,0.0,0.0,0.0,0.0,0.0,0.0,0.0,0.0,3,0,222
2,24,3,27998,30,0.0,0.0,0.0,0.0,0.0,0.0,0.0,0.0,0.0,3,0,12
2,24,2,28000,30,0.0,0.0,0.0,0.0,0.0,0.0,0.0,0.0,0.0,3,0,201
2,24,1,28001,30,0.0,0.0,0.0,0.0,0.0,0.0,0.0,0.0,0.0,3,0,2
2,24,3,28014,31,0.0,0.0,0.0,0.0,0.0,0.0,0.0,0.0,0.0,3,0,158
2,24,2,28015,31,0.0,0.0,0.0,0.0,0.0,0.0,0.0,0.0,0.0,3,0,11
2,24,1,28016,31,0.0,0.0,0.0,0.0,0.0,0.0,0.0,0.0,0.0,3,0,15
2,24,2,28019,32,0.0,0.0,0.0,0.0,0.0,0.0,0.0,0.0,0.0,3,0,192
2,24,1,28020,32,0.0,0.0,0.0,0.0,0.0,0.0,0.0,0.0,0.0,3,0,158
2,24,3,28021,32,0.0,0.0,0.0,0.0,0.0,0.0,0.0,0.0,0.0,3,0,122
2,24,2,28028,33,0.0,0.0,0.0,0.0,0.0,0.0,0.0,0.0,0.0,3,0,2
2,24,3,28029,33,0.0,0.0,0.0,0.0,0.0,0.0,0.0,0.0,0.0,3,0,151
2,24,1,28030,33,0.0,0.0,0.0,0.0,0.0,0.0,0.0,0.0,0.0,3,0,0
2,24,3,28036,34,0.0,0.0,0.0,0.0,0.0,0.0,0.0,0.0,0.0,3,0,230
2,24,1,28037,34,0.0,0.0,0.0,0.0,0.0,0.0,0.0,0.0,0.0,3,0,2
2,24,2,28038,34,0.0,0.0,0.0,0.0,0.0,0.0,0.0,0.0,0.0,3,0,186
2,24,1,28041,35,0.0,0.0,0.0,0.0,0.0,0.0,0.0,0.0,0.0,3,0,9
2,24,2,28043,35,0.0,0.0,0.0,0.0,0.0,0.0,0.0,0.0,0.0,3,0,11
2,24,3,28047,35,0.0,0.0,0.0,0.0,0.0,0.0,0.0,0.0,0.0,3,0,194
2,24,2,28050,36,0.0,0.0,0.0,0.0,0.0,0.0,0.0,0.0,0.0,3,0,25
2,24,3,28051,36,0.0,0.0,0.0,0.0,0.0,0.0,0.0,0.0,0.0,3,0,140
2,24,1,28052,36,0.0,0.0,0.0,0.0,0.0,0.0,0.0,0.0,0.0,3,0,253
2,24,2,28057,37,0.0,0.0,0.0,0.0,0.0,0.0,0.0,0.0,0.0,3,0,61
2,24,3,28058,37,0.0,0.0,0.0,0.0,0.0,0.0,0.0,0.0,0.0,3,0,219
2,24,1,28059,37,0.0,0.0,0.0,0.0,0.0,0.0,0.0,0.0,0.0,3,0,63
2,24,1,28063,38,0.0,0.0,0.0,0.0,0.0,0.0,0.0,0.0,0.0,3,0,179
2,24,3,28065,38,0.0,0.0,0.0,0.0,0.0,0.0,0.0,0.0,0.0,3,0,7
2,24,2,28069,38,0.0,0.0,0.0,0.0,0.0,0.0,0.0,0.0,0.0,3,0,206
2,24,2,28077,39,0.0,0.0,0.0,0.0,0.0,0.0,0.0,0.0,0.0,3,0,35
2,24,3,28079,39,0.0,0.0,0.0,0.0,0.0,0.0,0.0,0.0,0.0,3,0,127
2,24,1,28080,39,0.0,0.0,0.0,0.0,0.0,0.0,0.0,0.0,0.0,3,0,84
2,24,3,28083,40,0.0,0.0,0.0,0.0,0.0,0.0,0.0,0.0,0.0,3,0,6
2,24,1,28084,40,0.0,0.0,0.0,0.0,0.0,0.0,0.0,0.0,0.0,3,0,119
2,24,2,28085,40,0.0,0.0,0.0,0.0,0.0,0.0,0.0,0.0,0.0,3,0,188
2,24,2,28089,41,0.0,0.0,0.0,0.0,0.0,0.0,0.0,0.0,0.0,3,0,183
2,24,1,28092,41,0.0,0.0,0.0,0.0,0.0,0.0,0.0,0.0,0.0,3,0,154
2,24,3,28094,41,0.0,0.0,0.0,0.0,0.0,0.0,0.0,0.0,0.0,3,0,183
2,24,1,28097,42,0.0,0.0,0.0,0.0,0.0,0.0,0.0,0.0,0.0,3,0,153
2,24,2,28098,42,0.0,0.0,0.0,0.0,0.0,0.0,0.0,0.0,0.0,3,0,33
2,24,3,28107,42,0.0,0.0,0.0,0.0,0.0,0.0,0.0,0.0,0.0,3,0,127
2,24,1,28110,43,0.0,0.0,0.0,0.0,0.0,0.0,0.0,0.0,0.0,3,0,91
2,24,2,28111,43,0.0,0.0,0.0,0.0,0.0,0.0,0.0,0.0,0.0,3,0,144
2,24,3,28112,43,0.0,0.0,0.0,0.0,0.0,0.0,0.0,0.0,0.0,3,0,202
2,24,1,28116,44,0.0,0.0,0.0,0.0,0.0,0.0,0.0,0.0,0.0,3,0,128
2,24,2,28117,44,0.0,0.0,0.0,0.0,0.0,0.0,0.0,0.0,0.0,3,0,75
2,24,3,28118,44,0.0,0.0,0.0,0.0,0.0,0.0,0.0,0.0,0.0,3,0,173
2,24,3,28128,45,0.0,0.0,0.0,0.0,0.0,0.0,0.0,0.0,0.0,3,0,170
2,24,2,28129,45,0.0,0.0,0.0,0.0,0.0,0.0,0.0,0.0,0.0,3,0,63
2,24,1,28130,45,0.0,0.0,0.0,0.0,0.0,0.0,0.0,0.0,0.0,3,0,135
2,24,3,28135,46,0.0,0.0,0.0,0.0,0.0,0.0,0.0,0.0,0.0,3,0,239
2,24,1,28136,46,0.0,0.0,0.0,0.0,0.0,0.0,0.0,0.0,0.0,3,0,85
2,24,2,28138,46,0.0,0.0,0.0,0.0,0.0,0.0,0.0,0.0,0.0,3,0,87
2,24,2,28146,47,0.0,0.0,0.0,0.0,0.0,0.0,0.0,0.0,0.0,3,0,43
2,24,3,28147,47,0.0,0.0,0.0,0.0,0.0,0.0,0.0,0.0,0.0,3,0,190
2,24,1,28149,47,0.0,0.0,0.0,0.0,0.0,0.0,0.0,0.0,0.0,3,0,117
2,24,1,28155,48,0.0,0.0,0.0,0.0,0.0,0.0,0.0,0.0,0.0,3,0,128
2,24,2,28156,48,0.0,0.0,0.0,0.0,0.0,0.0,0.0,0.0,0.0,3,0,222
2,24,3,28157,48,0.0,0.0,0.0,0.0,0.0,0.0,0.0,0.0,0.0,3,0,75
2,24,3,28167,49,0.0,0.0,0.0,0.0,0.0,0.0,0.0,0.0,0.0,3,0,253
2,24,1,28168,49,0.0,0.0,0.0,0.0,0.0,0.0,0.0,0.0,0.0,3,0,71
2,24,2,28169,49,0.0,0.0,0.0,0.0,0.0,0.0,0.0,0.0,0.0,3,0,140
2,24,3,28175,50,0.0,0.0,0.0,0.0,0.0,0.0,0.0,0.0,0.0,3,0,92
2,24,2,28176,50,0.0,0.0,0.0,0.0,0.0,0.0,0.0,0.0,0.0,3,0,6
2,24,1,28177,50,0.0,0.0,0.0,0.0,0.0,0.0,0.0,0.0,0.0,3,0,205
2,24,2,28181,51,0.0,0.0,0.0,0.0,0.0,0.0,0.0,0.0,0.0,3,0,124
2,24,1,28182,51,0.0,0.0,0.0,0.0,0.0,0.0,0.0,0.0,0.0,3,0,196
2,24,3,28183,51,0.0,0.0,0.0,0.0,0.0,0.0,0.0,0.0,0.0,3,0,32
2,24,3,28189,52,0.0,0.0,0.0,0.0,0.0,0.0,0.0,0.0,0.0,3,0,106
2,24,1,28190,52,0.0,0.0,0.0,0.0,0.0,0.0,0.0,0.0,0.0,3,0,253
2,24,2,28192,52,0.0,0.0,0.0,0.0,0.0,0.0,0.0,0.0,0.0,3,0,102
2,24,3,28199,53,0.0,0.0,0.0,0.0,0.0,0.0,0.0,0.0,0.0,3,0,64
2,24,2,28200,53,0.0,0.0,0.0,0.0,0.0,0.0,0.0,0.0,0.0,3,0,139
2,24,1,28201,53,0.0,0.0,0.0,0.0,0.0,0.0,0.0,0.0,0.0,3,0,64
2,24,3,28205,54,0.0,0.0,0.0,0.0,0.0,0.0,0.0,0.0,0.0,3,0,146
2,24,1,28206,54,0.0,0.0,0.0,0.0,0.0,0.0,0.0,0.0,0.0,3,0,5
2,24,2,28208,54,0.0,0.0,0.0,0.0,0.0,0.0,0.0,0.0,0.0,3,0,187
2,24,1,28211,55,0.0,0.0,0.0,0.0,0.0,0.0,0.0,0.0,0.0,3,0,37
2,24,3,28212,55,0.0,0.0,0.0,0.0,0.0,0.0,0.0,0.0,0.0,3,0,84
2,24,2,28213,55,0.0,0.0,0.0,0.0,0.0,0.0,0.0,0.0,0.0,3,0,193
2,24,2,28220,56,0.0,0.0,0.0,0.0,0.0,0.0,0.0,0.0,0.0,3,0,117
2,24,3,28221,56,0.0,0.0,0.0,0.0,0.0,0.0,0.0,0.0,0.0,3,0,224
2,24,1,28223,56,0.0,0.0,0.0,0.0,0.0,0.0,0.0,0.0,0.0,3,0,205
2,24,3,28226,56,0.0,0.0,0.0,0.0,0.0,0.0,0.0,0.0,0.0,3,0,250
2,24,2,28227,57,0.0,0.0,0.0,0.0,0.0,0.0,0.0,0.0,0.0,3,0,73
2,24,1,28228,57,0.0,0.0,0.0,0.0,0.0,0.0,0.0,0.0,0.0,3,0,23
2,24,3,28279,58,0.0,0.0,0.0,0.0,0.0,0.0,0.0,0.0,0.0,3,0,94
2,24,2,28280,58,0.0,0.0,0.0,0.0,0.0,0.0,0.0,0.0,0.0,3,0,149
2,24,1,28283,58,0.0,0.0,0.0,0.0,0.0,0.0,0.0,0.0,0.0,3,0,45
2,24,3,28286,59,0.0,0.0,0.0,0.0,0.0,0.0,0.0,0.0,0.0,3,0,9
2,24,1,28287,59,0.0,0.0,0.0,0.0,0.0,0.0,0.0,0.0,0.0,3,0,237
2,24,2,28291,59,0.0,0.0,0.0,0.0,0.0,0.0,0.0,0.0,0.0,3,0,219
2,24,3,28294,60,0.0,0.0,0.0,0.0,0.0,0.0,0.0,0.0,0.0,3,0,90
2,24,1,28295,60,0.0,0.0,0.0,0.0,0.0,0.0,0.0,0.0,0.0,3,0,190
2,24,2,28296,60,0.0,0.0,0.0,0.0,0.0,0.0,0.0,0.0,0.0,3,0,43
2,24,2,28303,61,0.0,0.0,0.0,0.0,0.0,0.0,0.0,0.0,0.0,3,0,34
2,24,1,28304,61,0.0,0.0,0.0,0.0,0.0,0.0,0.0,0.0,0.0,3,0,38
2,24,3,28305,61,0.0,0.0,0.0,0.0,0.0,0.0,0.0,0.0,0.0,3,0,194
2,24,3,28308,62,0.0,0.0,0.0,0.0,0.0,0.0,0.0,0.0,0.0,3,0,244
2,24,2,28309,62,0.0,0.0,0.0,0.0,0.0,0.0,0.0,0.0,0.0,3,0,97
2,24,1,28313,62,0.0,0.0,0.0,0.0,0.0,0.0,0.0,0.0,0.0,3,0,61
2,24,3,28317,63,0.0,0.0,0.0,0.0,0.0,0.0,0.0,0.0,0.0,3,0,163
2,24,1,28318,63,0.0,0.0,0.0,0.0,0.0,0.0,0.0,0.0,0.0,3,0,52
2,24,2,28319,63,0.0,0.0,0.0,0.0,0.0,0.0,0.0,0.0,0.0,3,0,255
2,24,3,28325,64,0.0,0.0,0.0,0.0,0.0,0.0,0.0,0.0,0.0,3,0,20
2,24,2,28326,64,0.0,0.0,0.0,0.0,0.0,0.0,0.0,0.0,0.0,3,0,242
2,24,1,28328,64,0.0,0.0,0.0,0.0,0.0,0.0,0.0,0.0,0.0,3,0,221
2,24,1,28332,65,0.0,0.0,0.0,0.0,0.0,0.0,0.0,0.0,0.0,3,0,29
2,24,3,28333,65,0.0,0.0,0.0,0.0,0.0,0.0,0.0,0.0,0.0,3,0,249
2,24,2,28334,65,0.0,0.0,0.0,0.0,0.0,0.0,0.0,0.0,0.0,3,0,31
2,24,3,28337,66,0.0,0.0,0.0,0.0,0.0,0.0,0.0,0.0,0.0,3,0,47
2,24,1,28339,66,0.0,0.0,0.0,0.0,0.0,0.0,0.0,0.0,0.0,3,0,2
2,24,2,28340,66,0.0,0.0,0.0,0.0,0.0,0.0,0.0,0.0,0.0,3,0,92
2,24,3,28343,67,0.0,0.0,0.0,0.0,0.0,0.0,0.0,0.0,0.0,3,0,156
2,24,1,28344,67,0.0,0.0,0.0,0.0,0.0,0.0,0.0,0.0,0.0,3,0,38
2,24,2,28345,67,0.0,0.0,0.0,0.0,0.0,0.0,0.0,0.0,0.0,3,0,237
2,24,2,28350,68,0.0,0.0,0.0,0.0,0.0,0.0,0.0,0.0,0.0,3,0,48
2,24,3,28351,68,0.0,0.0,0.0,0.0,0.0,0.0,0.0,0.0,0.0,3,0,165
2,24,1,28352,68,0.0,0.0,0.0,0.0,0.0,0.0,0.0,0.0,0.0,3,0,225
2,24,3,28356,69,0.0,0.0,0.0,0.0,0.0,0.0,0.0,0.0,0.0,3,0,127
2,24,2,28357,69,0.0,0.0,0.0,0.0,0.0,0.0,0.0,0.0,0.0,3,0,234
2,24,1,28358,69,0.0,0.0,0.0,0.0,0.0,0.0,0.0,0.0,0.0,3,0,82
2,24,3,28361,70,0.0,0.0,0.0,0.0,0.0,0.0,0.0,0.0,0.0,3,0,130
2,24,2,28362,70,0.0,0.0,0.0,0.0,0.0,0.0,0.0,0.0,0.0,3,0,100
2,24,1,28364,70,0.0,0.0,0.0,0.0,0.0,0.0,0.0,0.0,0.0,3,0,128
2,24,1,28369,71,0.0,0.0,0.0,0.0,0.0,0.0,0.0,0.0,0.0,3,0,160
2,24,2,28370,71,0.0,0.0,0.0,0.0,0.0,0.0,0.0,0.0,0.0,3,0,24
2,24,3,28371,71,0.0,0.0,0.0,0.0,0.0,0.0,0.0,0.0,0.0,3,0,141
2,24,2,28374,72,0.0,0.0,0.0,0.0,0.0,0.0,0.0,0.0,0.0,3,0,59
2,24,3,28375,72,0.0,0.0,0.0,0.0,0.0,0.0,0.0,0.0,0.0,3,0,174
2,24,1,28376,72,0.0,0.0,0.0,0.0,0.0,0.0,0.0,0.0,0.0,3,0,20
2,24,2,28380,73,0.0,0.0,0.0,0.0,0.0,0.0,0.0,0.0,0.0,3,0,165
2,24,3,28381,73,0.0,0.0,0.0,0.0,0.0,0.0,0.0,0.0,0.0,3,0,48
2,24,1,28382,73,0.0,0.0,0.0,0.0,0.0,0.0,0.0,0.0,0.0,3,0,167
2,24,3,28385,74,0.0,0.0,0.0,0.0,0.0,0.0,0.0,0.0,0.0,3,0,195
2,24,1,28386,74,0.0,0.0,0.0,0.0,0.0,0.0,0.0,0.0,0.0,3,0,84
2,24,2,28387,74,0.0,0.0,0.0,0.0,0.0,0.0,0.0,0.0,0.0,3,0,159
2,24,2,28391,75,0.0,0.0,0.0,0.0,0.0,0.0,0.0,0.0,0.0,3,0,95
2,24,3,28392,75,0.0,0.0,0.0,0.0,0.0,0.0,0.0,0.0,0.0,3,0,148
2,24,1,28393,75,0.0,0.0,0.0,0.0,0.0,0.0,0.0,0.0,0.0,3,0,112
2,24,1,28397,76,0.0,0.0,0.0,0.0,0.0,0.0,0.0,0.0,0.0,3,0,100
2,24,3,28398,76,0.0,0.0,0.0,0.0,0.0,0.0,0.0,0.0,0.0,3,0,243
2,24,2,28399,76,0.0,0.0,0.0,0.0,0.0,0.0,0.0,0.0,0.0,3,0,102
2,24,1,28403,77,0.0,0.0,0.0,0.0,0.0,0.0,0.0,0.0,0.0,3,0,141
2,24,2,28405,77,0.0,0.0,0.0,0.0,0.0,0.0,0.0,0.0,0.0,3,0,105
2,24,3,28408,77,0.0,0.0,0.0,0.0,0.0,0.0,0.0,0.0,0.0,3,0,209
2,24,3,28412,78,0.0,0.0,0.0,0.0,0.0,0.0,0.0,0.0,0.0,3,0,93
2,24,2,28413,78,0.0,0.0,0.0,0.0,0.0,0.0,0.0,0.0,0.0,3,0,200
2,24,3,28415,78,0.0,0.0,0.0,0.0,0.0,0.0,0.0,0.0,0.0,3,0,148
2,24,1,28416,78,0.0,0.0,0.0,0.0,0.0,0.0,0.0,0.0,0.0,3,0,122
2,24,3,28420,79,0.0,0.0,0.0,0.0,0.0,0.0,0.0,0.0,0.0,3,0,228
2,24,2,28421,79,0.0,0.0,0.0,0.0,0.0,0.0,0.0,0.0,0.0,3,0,113
2,24,1,28422,79,0.0,0.0,0.0,0.0,0.0,0.0,0.0,0.0,0.0,3,0,201
2,24,2,28426,80,0.0,0.0,0.0,0.0,0.0,0.0,0.0,0.0,0.0,3,0,62
2,24,3,28427,80,0.0,0.0,0.0,0.0,0.0,0.0,0.0,0.0,0.0,3,0,171
2,24,1,28428,80,0.0,0.0,0.0,0.0,0.0,0.0,0.0,0.0,0.0,3,0,218
2,24,3,28432,81,0.0,0.0,0.0,0.0,0.0,0.0,0.0,0.0,0.0,3,0,30
2,24,2,28433,81,0.0,0.0,0.0,0.0,0.0,0.0,0.0,0.0,0.0,3,0,139
2,24,1,28434,81,0.0,0.0,0.0,0.0,0.0,0.0,0.0,0.0,0.0,3,0,51
2,24,3,28438,82,0.0,0.0,0.0,0.0,0.0,0.0,0.0,0.0,0.0,3,0,225
2,24,2,28439,82,0.0,0.0,0.0,0.0,0.0,0.0,0.0,0.0,0.0,3,0,116
2,24,1,28440,82,0.0,0.0,0.0,0.0,0.0,0.0,0.0,0.0,0.0,3,0,225
2,24,3,28445,83,0.0,0.0,0.0,0.0,0.0,0.0,0.0,0.0,0.0,3,0,197
2,24,2,28446,83,0.0,0.0,0.0,0.0,0.0,0.0,0.0,0.0,0.0,3,0,35
2,24,1,28448,83,0.0,0.0,0.0,0.0,0.0,0.0,0.0,0.0,0.0,3,0,184
2,24,3,28454,84,0.0,0.0,0.0,0.0,0.0,0.0,0.0,0.0,0.0,3,0,129
2,24,1,28455,84,0.0,0.0,0.0,0.0,0.0,0.0,0.0,0.0,0.0,3,0,101
2,24,2,28456,84,0.0,0.0,0.0,0.0,0.0,0.0,0.0,0.0,0.0,3,0,240
2,24,2,28460,85,0.0,0.0,0.0,0.0,0.0,0.0,0.0,0.0,0.0,3,0,48
2,24,3,28461,85,0.0,0.0,0.0,0.0,0.0,0.0,0.0,0.0,0.0,3,0,165
2,24,1,28462,85,0.0,0.0,0.0,0.0,0.0,0.0,0.0,0.0,0.0,3,0,50
2,24,2,28475,86,0.0,0.0,0.0,0.0,0.0,0.0,0.0,0.0,0.0,3,0,228
2,24,1,28476,86,0.0,0.0,0.0,0.0,0.0,0.0,0.0,0.0,0.0,3,0,186
2,24,3,28480,86,0.0,0.0,0.0,0.0,0.0,0.0,0.0,0.0,0.0,3,0,55
2,24,3,28487,87,0.0,0.0,0.0,0.0,0.0,0.0,0.0,0.0,0.0,3,0,62
2,24,2,28489,87,0.0,0.0,0.0,0.0,0.0,0.0,0.0,0.0,0.0,3,0,79
2,24,1,28490,87,0.0,0.0,0.0,0.0,0.0,0.0,0.0,0.0,0.0,3,0,247
2,24,2,28494,88,0.0,0.0,0.0,0.0,0.0,0.0,0.0,0.0,0.0,3,0,165
2,24,1,28495,88,0.0,0.0,0.0,0.0,0.0,0.0,0.0,0.0,0.0,3,0,110
2,24,3,28496,88,0.0,0.0,0.0,0.0,0.0,0.0,0.0,0.0,0.0,3,0,69
2,24,3,28500,89,0.0,0.0,0.0,0.0,0.0,0.0,0.0,0.0,0.0,3,0,133
2,24,1,28501,89,0.0,0.0,0.0,0.0,0.0,0.0,0.0,0.0,0.0,3,0,97
2,24,2,28502,89,0.0,0.0,0.0,0.0,0.0,0.0,0.0,0.0,0.0,3,0,217
2,24,3,28505,90,0.0,0.0,0.0,0.0,0.0,0.0,0.0,0.0,0.0,3,0,120
2,24,2,28506,90,0.0,0.0,0.0,0.0,0.0,0.0,0.0,0.0,0.0,3,0,158
2,24,1,28507,90,0.0,0.0,0.0,0.0,0.0,0.0,0.0,0.0,0.0,3,0,85
2,24,1,28511,91,0.0,0.0,0.0,0.0,0.0,0.0,0.0,0.0,0.0,3,0,149
2,24,3,28513,91,0.0,0.0,0.0,0.0,0.0,0.0,0.0,0.0,0.0,3,0,33
2,24,2,28514,91,0.0,0.0,0.0,0.0,0.0,0.0,0.0,0.0,0.0,3,0,199
2,24,3,28517,92,0.0,0.0,0.0,0.0,0.0,0.0,0.0,0.0,0.0,3,0,53
2,24,2,28518,92,0.0,0.0,0.0,0.0,0.0,0.0,0.0,0.0,0.0,3,0,211
2,24,1,28522,92,0.0,0.0,0.0,0.0,0.0,0.0,0.0,0.0,0.0,3,0,143
2,24,3,28526,93,0.0,0.0,0.0,0.0,0.0,0.0,0.0,0.0,0.0,3,0,17
2,24,1,28527,93,0.0,0.0,0.0,0.0,0.0,0.0,0.0,0.0,0.0,3,0,245
2,24,2,28528,93,0.0,0.0,0.0,0.0,0.0,0.0,0.0,0.0,0.0,3,0,241
2,24,3,28532,94,0.0,0.0,0.0,0.0,0.0,0.0,0.0,0.0,0.0,3,0,82
2,24,1,28533,94,0.0,0.0,0.0,0.0,0.0,0.0,0.0,0.0,0.0,3,0,182
2,24,2,28534,94,0.0,0.0,0.0,0.0,0.0,0.0,0.0,0.0,0.0,3,0,14
2,24,2,28538,95,0.0,0.0,0.0,0.0,0.0,0.0,0.0,0.0,0.0,3,0,5
2,24,3,28539,95,0.0,0.0,0.0,0.0,0.0,0.0,0.0,0.0,0.0,3,0,144
2,24,1,28540,95,0.0,0.0,0.0,0.0,0.0,0.0,0.0,0.0,0.0,3,0,225
2,24,3,28545,96,0.0,0.0,0.0,0.0,0.0,0.0,0.0,0.0,0.0,3,0,53
2,24,2,28546,96,0.0,0.0,0.0,0.0,0.0,0.0,0.0,0.0,0.0,3,0,211
2,24,1,28548,96,0.0,0.0,0.0,0.0,0.0,0.0,0.0,0.0,0.0,3,0,55
2,24,1,28551,97,0.0,0.0,0.0,0.0,0.0,0.0,0.0,0.0,0.0,3,0,216
2,24,3,28553,97,0.0,0.0,0.0,0.0,0.0,0.0,0.0,0.0,0.0,3,0,216
2,24,2,28557,97,0.0,0.0,0.0,0.0,0.0,0.0,0.0,0.0,0.0,3,0,17
2,24,2,28568,98,0.0,0.0,0.0,0.0,0.0,0.0,0.0,0.0,0.0,3,0,182
2,24,1,28569,98,0.0,0.0,0.0,0.0,0.0,0.0,0.0,0.0,0.0,3,0,125
2,24,3,28571,98,0.0,0.0,0.0,0.0,0.0,0.0,0.0,0.0,0.0,3,0,80
2,24,3,28574,99,0.0,0.0,0.0,0.0,0.0,0.0,0.0,0.0,0.0,3,0,42
2,24,2,28575,99,0.0,0.0,0.0,0.0,0.0,0.0,0.0,0.0,0.0,3,0,191
2,24,1,28576,99,0.0,0.0,0.0,0.0,0.0,0.0,0.0,0.0,0.0,3,0,158
2,24,2,28580,100,0.0,0.0,0.0,0.0,0.0,0.0,0.0,0.0,0.0,3,0,251
2,24,3,28581,100,0.0,0.0,0.0,0.0,0.0,0.0,0.0,0.0,0.0,3,0,110
2,24,1,28583,100,0.0,0.0,0.0,0.0,0.0,0.0,0.0,0.0,0.0,3,0,67
2,24,2,28587,101,0.0,0.0,0.0,0.0,0.0,0.0,0.0,0.0,0.0,3,0,57
2,24,3,28588,101,0.0,0.0,0.0,0.0,0.0,0.0,0.0,0.0,0.0,3,0,57
2,24,1,28592,101,0.0,0.0,0.0,0.0,0.0,0.0,0.0,0.0,0.0,3,0,219
2,24,3,28596,102,0.0,0.0,0.0,0.0,0.0,0.0,0.0,0.0,0.0,3,0,9
2,24,2,28597,102,0.0,0.0,0.0,0.0,0.0,0.0,0.0,0.0,0.0,3,0,156
2,24,1,28598,102,0.0,0.0,0.0,0.0,0.0,0.0,0.0,0.0,0.0,3,0,36
2,24,3,28601,103,0.0,0.0,0.0,0.0,0.0,0.0,0.0,0.0,0.0,3,0,184
2,24,2,28602,103,0.0,0.0,0.0,0.0,0.0,0.0,0.0,0.0,0.0,3,0,94
2,24,1,28607,103,0.0,0.0,0.0,0.0,0.0,0.0,0.0,0.0,0.0,3,0,115
2,24,2,28610,104,0.0,0.0,0.0,0.0,0.0,0.0,0.0,0.0,0.0,3,0,174
2,24,1,28611,104,0.0,0.0,0.0,0.0,0.0,0.0,0.0,0.0,0.0,3,0,101
2,24,3,28612,104,0.0,0.0,0.0,0.0,0.0,0.0,0.0,0.0,0.0,3,0,20
2,24,1,28621,105,0.0,0.0,0.0,0.0,0.0,0.0,0.0,0.0,0.0,3,0,29
2,24,3,28622,105,0.0,0.0,0.0,0.0,0.0,0.0,0.0,0.0,0.0,3,0,138
2,24,2,28624,105,0.0,0.0,0.0,0.0,0.0,0.0,0.0,0.0,0.0,3,0,106
2,24,2,28632,106,0.0,0.0,0.0,0.0,0.0,0.0,0.0,0.0,0.0,3,0,203
2,24,1,28633,106,0.0,0.0,0.0,0.0,0.0,0.0,0.0,0.0,0.0,3,0,0
2,24,3,28634,106,0.0,0.0,0.0,0.0,0.0,0.0,0.0,0.0,0.0,3,0,151
2,24,1,28640,107,0.0,0.0,0.0,0.0,0.0,0.0,0.0,0.0,0.0,3,0,227
2,24,3,28641,107,0.0,0.0,0.0,0.0,0.0,0.0,0.0,0.0,0.0,3,0,7
2,24,2,28642,107,0.0,0.0,0.0,0.0,0.0,0.0,0.0,0.0,0.0,3,0,225
2,24,3,28645,108,0.0,0.0,0.0,0.0,0.0,0.0,0.0,0.0,0.0,3,0,19
2,24,2,28646,108,0.0,0.0,0.0,0.0,0.0,0.0,0.0,0.0,0.0,3,0,245
2,24,1,28652,108,0.0,0.0,0.0,0.0,0.0,0.0,0.0,0.0,0.0,3,0,60
2,24,3,28655,109,0.0,0.0,0.0,0.0,0.0,0.0,0.0,0.0,0.0,3,0,141
2,24,2,28657,109,0.0,0.0,0.0,0.0,0.0,0.0,0.0,0.0,0.0,3,0,109
2,24,1,28661,109,0.0,0.0,0.0,0.0,0.0,0.0,0.0,0.0,0.0,3,0,250
2,24,3,28664,110,0.0,0.0,0.0,0.0,0.0,0.0,0.0,0.0,0.0,3,0,89
2,24,2,28665,110,0.0,0.0,0.0,0.0,0.0,0.0,0.0,0.0,0.0,3,0,204
2,24,1,28666,110,0.0,0.0,0.0,0.0,0.0,0.0,0.0,0.0,0.0,3,0,116
2,24,3,28671,111,0.0,0.0,0.0,0.0,0.0,0.0,0.0,0.0,0.0,3,0,80
2,24,2,28672,111,0.0,0.0,0.0,0.0,0.0,0.0,0.0,0.0,0.0,3,0,85
2,24,1,28673,111,0.0,0.0,0.0,0.0,0.0,0.0,0.0,0.0,0.0,3,0,158
2,24,3,28677,112,0.0,0.0,0.0,0.0,0.0,0.0,0.0,0.0,0.0,3,0,141
2,24,1,28678,112,0.0,0.0,0.0,0.0,0.0,0.0,0.0,0.0,0.0,3,0,26
2,24,2,28679,112,0.0,0.0,0.0,0.0,0.0,0.0,0.0,0.0,0.0,3,0,209
2,24,3,28683,113,0.0,0.0,0.0,0.0,0.0,0.0,0.0,0.0,0.0,3,0,245
2,24,2,28684,113,0.0,0.0,0.0,0.0,0.0,0.0,0.0,0.0,0.0,3,0,245
2,24,1,28686,113,0.0,0.0,0.0,0.0,0.0,0.0,0.0,0.0,0.0,3,0,247
2,24,3,28689,114,0.0,0.0,0.0,0.0,0.0,0.0,0.0,0.0,0.0,3,0,182
2,24,2,28690,114,0.0,0.0,0.0,0.0,0.0,0.0,0.0,0.0,0.0,3,0,80
2,24,1,28691,114,0.0,0.0,0.0,0.0,0.0,0.0,0.0,0.0,0.0,3,0,155
2,24,1,28697,115,0.0,0.0,0.0,0.0,0.0,0.0,0.0,0.0,0.0,3,0,5
2,24,3,28698,115,0.0,0.0,0.0,0.0,0.0,0.0,0.0,0.0,0.0,3,0,146
2,24,2,28699,115,0.0,0.0,0.0,0.0,0.0,0.0,0.0,0.0,0.0,3,0,7
2,24,3,28703,116,0.0,0.0,0.0,0.0,0.0,0.0,0.0,0.0,0.0,3,0,60
2,24,2,28704,116,0.0,0.0,0.0,0.0,0.0,0.0,0.0,0.0,0.0,3,0,67
2,24,1,28705,116,0.0,0.0,0.0,0.0,0.0,0.0,0.0,0.0,0.0,3,0,136
2,24,1,28710,117,0.0,0.0,0.0,0.0,0.0,0.0,0.0,0.0,0.0,3,0,129
2,24,3,28711,117,0.0,0.0,0.0,0.0,0.0,0.0,0.0,0.0,0.0,3,0,101
2,24,2,28712,117,0.0,0.0,0.0,0.0,0.0,0.0,0.0,0.0,0.0,3,0,174
2,24,2,28717,118,0.0,0.0,0.0,0.0,0.0,0.0,0.0,0.0,0.0,3,0,152
2,24,1,28718,118,0.0,0.0,0.0,0.0,0.0,0.0,0.0,0.0,0.0,3,0,32
2,24,3,28719,118,0.0,0.0,0.0,0.0,0.0,0.0,0.0,0.0,0.0,3,0,196
2,24,3,28723,119,0.0,0.0,0.0,0.0,0.0,0.0,0.0,0.0,0.0,3,0,94
2,24,2,28724,119,0.0,0.0,0.0,0.0,0.0,0.0,0.0,0.0,0.0,3,0,94
2,24,1,28725,119,0.0,0.0,0.0,0.0,0.0,0.0,0.0,0.0,0.0,3,0,149
2,24,3,28731,120,0.0,0.0,0.0,0.0,0.0,0.0,0.0,0.0,0.0,3,0,80
2,24,1,28732,120,0.0,0.0,0.0,0.0,0.0,0.0,0.0,0.0,0.0,3,0,33
2,24,2,28736,120,0.0,0.0,0.0,0.0,0.0,0.0,0.0,0.0,0.0,3,0,131
2,24,3,28739,121,0.0,0.0,0.0,0.0,0.0,0.0,0.0,0.0,0.0,3,0,67
2,24,2,28740,121,0.0,0.0,0.0,0.0,0.0,0.0,0.0,0.0,0.0,3,0,67
2,24,1,28741,121,0.0,0.0,0.0,0.0,0.0,0.0,0.0,0.0,0.0,3,0,136
2,24,3,28745,122,0.0,0.0,0.0,0.0,0.0,0.0,0.0,0.0,0.0,3,0,145
2,24,1,28746,122,0.0,0.0,0.0,0.0,0.0,0.0,0.0,0.0,0.0,3,0,6
2,24,2,28747,122,0.0,0.0,0.0,0.0,0.0,0.0,0.0,0.0,0.0,3,0,205
2,24,3,28751,123,0.0,0.0,0.0,0.0,0.0,0.0,0.0,0.0,0.0,3,0,34
2,24,2,28752,123,0.0,0.0,0.0,0.0,0.0,0.0,0.0,0.0,0.0,3,0,120
2,24,1,28753,123,0.0,0.0,0.0,0.0,0.0,0.0,0.0,0.0,0.0,3,0,179
2,24,1,28756,124,0.0,0.0,0.0,0.0,0.0,0.0,0.0,0.0,0.0,3,0,29
2,24,3,28757,124,0.0,0.0,0.0,0.0,0.0,0.0,0.0,0.0,0.0,3,0,249
2,24,2,28760,124,0.0,0.0,0.0,0.0,0.0,0.0,0.0,0.0,0.0,3,0,65
2,24,2,28764,125,0.0,0.0,0.0,0.0,0.0,0.0,0.0,0.0,0.0,3,0,129
2,24,3,28765,125,0.0,0.0,0.0,0.0,0.0,0.0,0.0,0.0,0.0,3,0,20
2,24,1,28766,125,0.0,0.0,0.0,0.0,0.0,0.0,0.0,0.0,0.0,3,0,131
2,24,1,28771,126,0.0,0.0,0.0,0.0,0.0,0.0,0.0,0.0,0.0,3,0,202
2,24,2,28773,126,0.0,0.0,0.0,0.0,0.0,0.0,0.0,0.0,0.0,3,0,46
2,24,3,28774,126,0.0,0.0,0.0,0.0,0.0,0.0,0.0,0.0,0.0,3,0,200
2,24,2,28779,127,0.0,0.0,0.0,0.0,0.0,0.0,0.0,0.0,0.0,3,0,86
2,24,3,28780,127,0.0,0.0,0.0,0.0,0.0,0.0,0.0,0.0,0.0,3,0,86
2,24,1,28782,127,0.0,0.0,0.0,0.0,0.0,0.0,0.0,0.0,0.0,3,0,123
2,24,3,28785,128,0.0,0.0,0.0,0.0,0.0,0.0,0.0,0.0,0.0,3,0,225
2,24,1,28786,128,0.0,0.0,0.0,0.0,0.0,0.0,0.0,0.0,0.0,3,0,118
2,24,2,28788,128,0.0,0.0,0.0,0.0,0.0,0.0,0.0,0.0,0.0,3,0,146
2,24,3,28791,129,0.0,0.0,0.0,0.0,0.0,0.0,0.0,0.0,0.0,3,0,82
2,24,1,28792,129,0.0,0.0,0.0,0.0,0.0,0.0,0.0,0.0,0.0,3,0,232
2,24,2,28793,129,0.0,0.0,0.0,0.0,0.0,0.0,0.0,0.0,0.0,3,0,35
2,24,3,28798,130,0.0,0.0,0.0,0.0,0.0,0.0,0.0,0.0,0.0,3,0,73
2,24,2,28799,130,0.0,0.0,0.0,0.0,0.0,0.0,0.0,0.0,0.0,3,0,220
2,24,1,28803,129,0.0,0.0,0.0,0.0,0.0,0.0,0.0,0.0,0.0,3,0,128
2,24,2,28849,131,0.0,0.0,0.0,0.0,0.0,0.0,0.0,0.0,0.0,3,0,122
2,24,1,28850,131,0.0,0.0,0.0,0.0,0.0,0.0,0.0,0.0,0.0,3,0,194
2,24,3,28851,131,0.0,0.0,0.0,0.0,0.0,0.0,0.0,0.0,0.0,3,0,38
2,24,3,28855,132,0.0,0.0,0.0,0.0,0.0,0.0,0.0,0.0,0.0,3,0,50
2,24,1,28856,132,0.0,0.0,0.0,0.0,0.0,0.0,0.0,0.0,0.0,3,0,136
2,24,2,28857,132,0.0,0.0,0.0,0.0,0.0,0.0,0.0,0.0,0.0,3,0,67
2,24,1,28862,133,0.0,0.0,0.0,0.0,0.0,0.0,0.0,0.0,0.0,3,0,59
2,24,3,28863,133,0.0,0.0,0.0,0.0,0.0,0.0,0.0,0.0,0.0,3,0,223
2,24,2,28864,133,0.0,0.0,0.0,0.0,0.0,0.0,0.0,0.0,0.0,3,0,234
2,24,2,28867,134,0.0,0.0,0.0,0.0,0.0,0.0,0.0,0.0,0.0,3,0,73
2,24,3,28868,134,0.0,0.0,0.0,0.0,0.0,0.0,0.0,0.0,0.0,3,0,73
2,24,1,28869,134,0.0,0.0,0.0,0.0,0.0,0.0,0.0,0.0,0.0,3,0,173
2,24,2,28873,135,0.0,0.0,0.0,0.0,0.0,0.0,0.0,0.0,0.0,3,0,215
2,24,3,28874,135,0.0,0.0,0.0,0.0,0.0,0.0,0.0,0.0,0.0,3,0,49
2,24,1,28876,135,0.0,0.0,0.0,0.0,0.0,0.0,0.0,0.0,0.0,3,0,250
2,24,3,28879,136,0.0,0.0,0.0,0.0,0.0,0.0,0.0,0.0,0.0,3,0,168
2,24,2,28881,136,0.0,0.0,0.0,0.0,0.0,0.0,0.0,0.0,0.0,3,0,72
2,24,1,28882,136,0.0,0.0,0.0,0.0,0.0,0.0,0.0,0.0,0.0,3,0,240
2,24,3,28885,137,0.0,0.0,0.0,0.0,0.0,0.0,0.0,0.0,0.0,3,0,167
2,24,2,28886,137,0.0,0.0,0.0,0.0,0.0,0.0,0.0,0.0,0.0,3,0,65
2,24,1,28887,137,0.0,0.0,0.0,0.0,0.0,0.0,0.0,0.0,0.0,3,0,138
2,24,2,28891,138,0.0,0.0,0.0,0.0,0.0,0.0,0.0,0.0,0.0,3,0,188
2,24,3,28892,138,0.0,0.0,0.0,0.0,0.0,0.0,0.0,0.0,0.0,3,0,188
2,24,1,28893,138,0.0,0.0,0.0,0.0,0.0,0.0,0.0,0.0,0.0,3,0,88
2,24,3,28904,139,0.0,0.0,0.0,0.0,0.0,0.0,0.0,0.0,0.0,3,0,200
2,24,2,28905,139,0.0,0.0,0.0,0.0,0.0,0.0,0.0,0.0,0.0,3,0,93
2,24,1,28906,139,0.0,0.0,0.0,0.0,0.0,0.0,0.0,0.0,0.0,3,0,229
2,24,1,28910,140,0.0,0.0,0.0,0.0,0.0,0.0,0.0,0.0,0.0,3,0,241
2,24,2,28912,140,0.0,0.0,0.0,0.0,0.0,0.0,0.0,0.0,0.0,3,0,79
2,24,3,28913,140,0.0,0.0,0.0,0.0,0.0,0.0,0.0,0.0,0.0,3,0,218
2,24,3,28920,141,0.0,0.0,0.0,0.0,0.0,0.0,0.0,0.0,0.0,3,0,141
2,24,1,28922,141,0.0,0.0,0.0,0.0,0.0,0.0,0.0,0.0,0.0,3,0,160
2,24,2,28923,141,0.0,0.0,0.0,0.0,0.0,0.0,0.0,0.0,0.0,3,0,107
2,24,1,28926,142,0.0,0.0,0.0,0.0,0.0,0.0,0.0,0.0,0.0,3,0,44
2,24,3,28927,142,0.0,0.0,0.0,0.0,0.0,0.0,0.0,0.0,0.0,3,0,200
2,24,2,28928,142,0.0,0.0,0.0,0.0,0.0,0.0,0.0,0.0,0.0,3,0,87
2,24,2,28932,143,0.0,0.0,0.0,0.0,0.0,0.0,0.0,0.0,0.0,3,0,151
2,24,1,28933,143,0.0,0.0,0.0,0.0,0.0,0.0,0.0,0.0,0.0,3,0,92
2,24,3,28934,143,0.0,0.0,0.0,0.0,0.0,0.0,0.0,0.0,0.0,3,0,203
2,24,2,28938,144,0.0,0.0,0.0,0.0,0.0,0.0,0.0,0.0,0.0,3,0,98
2,24,1,28939,144,0.0,0.0,0.0,0.0,0.0,0.0,0.0,0.0,0.0,3,0,169
2,24,3,28941,144,0.0,0.0,0.0,0.0,0.0,0.0,0.0,0.0,0.0,3,0,98
2,24,3,28944,145,0.0,0.0,0.0,0.0,0.0,0.0,0.0,0.0,0.0,3,0,66
2,24,1,28945,145,0.0,0.0,0.0,0.0,0.0,0.0,0.0,0.0,0.0,3,0,166
2,24,2,28946,145,0.0,0.0,0.0,0.0,0.0,0.0,0.0,0.0,0.0,3,0,30
2,24,3,28952,146,0.0,0.0,0.0,0.0,0.0,0.0,0.0,0.0,0.0,3,0,227
2,24,2,28953,146,0.0,0.0,0.0,0.0,0.0,0.0,0.0,0.0,0.0,3,0,118
2,24,1,28954,146,0.0,0.0,0.0,0.0,0.0,0.0,0.0,0.0,0.0,3,0,206
2,24,3,28959,147,0.0,0.0,0.0,0.0,0.0,0.0,0.0,0.0,0.0,3,0,234
2,24,2,28960,147,0.0,0.0,0.0,0.0,0.0,0.0,0.0,0.0,0.0,3,0,149
2,24,1,28964,147,0.0,0.0,0.0,0.0,0.0,0.0,0.0,0.0,0.0,3,0,2
2,24,3,28969,148,0.0,0.0,0.0,0.0,0.0,0.0,0.0,0.0,0.0,3,0,57
2,24,1,28970,148,0.0,0.0,0.0,0.0,0.0,0.0,0.0,0.0,0.0,3,0,174
2,24,3,29021,149,0.0,0.0,0.0,0.0,0.0,0.0,0.0,0.0,0.0,3,0,7
2,24,1,29022,149,0.0,0.0,0.0,0.0,0.0,0.0,0.0,0.0,0.0,3,0,144
2,24,2,29023,149,0.0,0.0,0.0,0.0,0.0,0.0,0.0,0.0,0.0,3,0,91
2,24,1,29028,150,0.0,0.0,0.0,0.0,0.0,0.0,0.0,0.0,0.0,3,0,246
2,24,3,29031,150,0.0,0.0,0.0,0.0,0.0,0.0,0.0,0.0,0.0,3,0,97
2,24,2,29032,150,0.0,0.0,0.0,0.0,0.0,0.0,0.0,0.0,0.0,3,0,170
2,24,3,29042,151,0.0,0.0,0.0,0.0,0.0,0.0,0.0,0.0,0.0,3,0,138
2,24,1,29043,151,0.0,0.0,0.0,0.0,0.0,0.0,0.0,0.0,0.0,3,0,110
2,24,2,29044,151,0.0,0.0,0.0,0.0,0.0,0.0,0.0,0.0,0.0,3,0,48
2,24,1,29048,152,0.0,0.0,0.0,0.0,0.0,0.0,0.0,0.0,0.0,3,0,169
2,24,3,29049,152,0.0,0.0,0.0,0.0,0.0,0.0,0.0,0.0,0.0,3,0,77
2,24,2,29050,152,0.0,0.0,0.0,0.0,0.0,0.0,0.0,0.0,0.0,3,0,171
2,24,3,29053,153,0.0,0.0,0.0,0.0,0.0,0.0,0.0,0.0,0.0,3,0,141
2,24,2,29054,153,0.0,0.0,0.0,0.0,0.0,0.0,0.0,0.0,0.0,3,0,107
2,24,1,29056,153,0.0,0.0,0.0,0.0,0.0,0.0,0.0,0.0,0.0,3,0,46
2,24,3,29064,154,0.0,0.0,0.0,0.0,0.0,0.0,0.0,0.0,0.0,3,0,209
2,24,2,29065,154,0.0,0.0,0.0,0.0,0.0,0.0,0.0,0.0,0.0,3,0,68
2,24,1,29067,154,0.0,0.0,0.0,0.0,0.0,0.0,0.0,0.0,0.0,3,0,70
2,24,1,29074,155,0.0,0.0,0.0,0.0,0.0,0.0,0.0,0.0,0.0,3,0,128
2,24,3,29075,155,0.0,0.0,0.0,0.0,0.0,0.0,0.0,0.0,0.0,3,0,100
2,24,2,29077,155,0.0,0.0,0.0,0.0,0.0,0.0,0.0,0.0,0.0,3,0,222
2,24,1,29082,156,0.0,0.0,0.0,0.0,0.0,0.0,0.0,0.0,0.0,3,0,185
2,24,3,29083,156,0.0,0.0,0.0,0.0,0.0,0.0,0.0,0.0,0.0,3,0,93
2,24,2,29084,156,0.0,0.0,0.0,0.0,0.0,0.0,0.0,0.0,0.0,3,0,93
2,24,1,29087,157,0.0,0.0,0.0,0.0,0.0,0.0,0.0,0.0,0.0,3,0,195
2,24,3,29088,157,0.0,0.0,0.0,0.0,0.0,0.0,0.0,0.0,0.0,3,0,205
2,24,2,29090,157,0.0,0.0,0.0,0.0,0.0,0.0,0.0,0.0,0.0,3,0,145
2,24,1,29093,158,0.0,0.0,0.0,0.0,0.0,0.0,0.0,0.0,0.0,3,0,165
2,24,3,29095,158,0.0,0.0,0.0,0.0,0.0,0.0,0.0,0.0,0.0,3,0,136
2,24,2,29096,158,0.0,0.0,0.0,0.0,0.0,0.0,0.0,0.0,0.0,3,0,67
2,24,2,29107,159,0.0,0.0,0.0,0.0,0.0,0.0,0.0,0.0,0.0,3,0,246
2,24,3,29108,159,0.0,0.0,0.0,0.0,0.0,0.0,0.0,0.0,0.0,3,0,246
2,24,1,29109,159,0.0,0.0,0.0,0.0,0.0,0.0,0.0,0.0,0.0,3,0,18
2,24,2,29112,160,0.0,0.0,0.0,0.0,0.0,0.0,0.0,0.0,0.0,3,0,131
2,24,1,29113,160,0.0,0.0,0.0,0.0,0.0,0.0,0.0,0.0,0.0,3,0,72
2,24,3,29115,160,0.0,0.0,0.0,0.0,0.0,0.0,0.0,0.0,0.0,3,0,101
2,24,3,29118,161,0.0,0.0,0.0,0.0,0.0,0.0,0.0,0.0,0.0,3,0,31
2,24,2,29126,161,0.0,0.0,0.0,0.0,0.0,0.0,0.0,0.0,0.0,3,0,5
2,24,1,29127,161,0.0,0.0,0.0,0.0,0.0,0.0,0.0,0.0,0.0,3,0,206
2,24,3,29133,162,0.0,0.0,0.0,0.0,0.0,0.0,0.0,0.0,0.0,3,0,66
2,24,2,29134,162,0.0,0.0,0.0,0.0,0.0,0.0,0.0,0.0,0.0,3,0,164
2,24,1,29135,162,0.0,0.0,0.0,0.0,0.0,0.0,0.0,0.0,0.0,3,0,111
2,24,2,29141,163,0.0,0.0,0.0,0.0,0.0,0.0,0.0,0.0,0.0,3,0,17
2,24,1,29142,163,0.0,0.0,0.0,0.0,0.0,0.0,0.0,0.0,0.0,3,0,169
2,24,3,29143,163,0.0,0.0,0.0,0.0,0.0,0.0,0.0,0.0,0.0,3,0,77
2,24,3,29146,164,0.0,0.0,0.0,0.0,0.0,0.0,0.0,0.0,0.0,3,0,40
2,24,1,29147,164,0.0,0.0,0.0,0.0,0.0,0.0,0.0,0.0,0.0,3,0,204
2,24,2,29148,164,0.0,0.0,0.0,0.0,0.0,0.0,0.0,0.0,0.0,3,0,146
2,24,3,29156,165,0.0,0.0,0.0,0.0,0.0,0.0,0.0,0.0,0.0,3,0,228
2,24,1,29161,165,0.0,0.0,0.0,0.0,0.0,0.0,0.0,0.0,0.0,3,0,45
2,24,2,29162,165,0.0,0.0,0.0,0.0,0.0,0.0,0.0,0.0,0.0,3,0,149
2,24,2,29165,166,0.0,0.0,0.0,0.0,0.0,0.0,0.0,0.0,0.0,3,0,208
2,24,1,29167,166,0.0,0.0,0.0,0.0,0.0,0.0,0.0,0.0,0.0,3,0,210
2,24,3,29169,166,0.0,0.0,0.0,0.0,0.0,0.0,0.0,0.0,0.0,3,0,67
2,24,2,29175,167,0.0,0.0,0.0,0.0,0.0,0.0,0.0,0.0,0.0,3,0,223
2,24,3,29176,167,0.0,0.0,0.0,0.0,0.0,0.0,0.0,0.0,0.0,3,0,20
2,24,1,29177,167,0.0,0.0,0.0,0.0,0.0,0.0,0.0,0.0,0.0,3,0,240
2,24,3,29183,168,0.0,0.0,0.0,0.0,0.0,0.0,0.0,0.0,0.0,3,0,254
2,24,2,29185,168,0.0,0.0,0.0,0.0,0.0,0.0,0.0,0.0,0.0,3,0,167
2,24,1,29186,168,0.0,0.0,0.0,0.0,0.0,0.0,0.0,0.0,0.0,3,0,31
2,24,1,29190,169,0.0,0.0,0.0,0.0,0.0,0.0,0.0,0.0,0.0,3,0,223
2,24,3,29191,169,0.0,0.0,0.0,0.0,0.0,0.0,0.0,0.0,0.0,3,0,59
2,24,2,29192,169,0.0,0.0,0.0,0.0,0.0,0.0,0.0,0.0,0.0,3,0,240
2,24,3,29198,170,0.0,0.0,0.0,0.0,0.0,0.0,0.0,0.0,0.0,3,0,32
2,24,2,29199,170,0.0,0.0,0.0,0.0,0.0,0.0,0.0,0.0,0.0,3,0,181
2,24,1,29200,170,0.0,0.0,0.0,0.0,0.0,0.0,0.0,0.0,0.0,3,0,177
2,24,2,29204,171,0.0,0.0,0.0,0.0,0.0,0.0,0.0,0.0,0.0,3,0,0
2,24,3,29206,171,0.0,0.0,0.0,0.0,0.0,0.0,0.0,0.0,0.0,3,0,92
2,24,1,29209,171,0.0,0.0,0.0,0.0,0.0,0.0,0.0,0.0,0.0,3,0,230
2,24,3,29221,172,0.0,0.0,0.0,0.0,0.0,0.0,0.0,0.0,0.0,3,0,211
2,24,1,29222,172,0.0,0.0,0.0,0.0,0.0,0.0,0.0,0.0,0.0,3,0,68
2,24,2,29224,172,0.0,0.0,0.0,0.0,0.0,0.0,0.0,0.0,0.0,3,0,107
2,24,3,29227,173,0.0,0.0,0.0,0.0,0.0,0.0,0.0,0.0,0.0,3,0,171
2,24,1,29228,173,0.0,0.0,0.0,0.0,0.0,0.0,0.0,0.0,0.0,3,0,218
2,24,2,29229,173,0.0,0.0,0.0,0.0,0.0,0.0,0.0,0.0,0.0,3,0,17
2,24,2,29233,174,0.0,0.0,0.0,0.0,0.0,0.0,0.0,0.0,0.0,3,0,199
2,24,3,29234,174,0.0,0.0,0.0,0.0,0.0,0.0,0.0,0.0,0.0,3,0,33
2,24,1,29236,174,0.0,0.0,0.0,0.0,0.0,0.0,0.0,0.0,0.0,3,0,234
2,24,2,29240,175,0.0,0.0,0.0,0.0,0.0,0.0,0.0,0.0,0.0,3,0,144
2,24,3,29242,175,0.0,0.0,0.0,0.0,0.0,0.0,0.0,0.0,0.0,3,0,204
2,24,1,29243,175,0.0,0.0,0.0,0.0,0.0,0.0,0.0,0.0,0.0,3,0,40
2,24,1,29250,176,0.0,0.0,0.0,0.0,0.0,0.0,0.0,0.0,0.0,3,0,12
2,24,3,29251,176,0.0,0.0,0.0,0.0,0.0,0.0,0.0,0.0,0.0,3,0,232
2,24,2,29252,176,0.0,0.0,0.0,0.0,0.0,0.0,0.0,0.0,0.0,3,0,232
2,24,2,29255,177,0.0,0.0,0.0,0.0,0.0,0.0,0.0,0.0,0.0,3,0,7
2,24,1,29256,177,0.0,0.0,0.0,0.0,0.0,0.0,0.0,0.0,0.0,3,0,146
2,24,3,29257,177,0.0,0.0,0.0,0.0,0.0,0.0,0.0,0.0,0.0,3,0,118
2,24,2,29260,178,0.0,0.0,0.0,0.0,0.0,0.0,0.0,0.0,0.0,3,0,111
2,24,3,29261,178,0.0,0.0,0.0,0.0,0.0,0.0,0.0,0.0,0.0,3,0,250
2,24,1,29267,178,0.0,0.0,0.0,0.0,0.0,0.0,0.0,0.0,0.0,3,0,107
2,24,3,29270,179,0.0,0.0,0.0,0.0,0.0,0.0,0.0,0.0,0.0,3,0,79
2,24,1,29271,179,0.0,0.0,0.0,0.0,0.0,0.0,0.0,0.0,0.0,3,0,171
2,24,2,29273,179,0.0,0.0,0.0,0.0,0.0,0.0,0.0,0.0,0.0,3,0,132
2,24,1,29277,180,0.0,0.0,0.0,0.0,0.0,0.0,0.0,0.0,0.0,3,0,225
2,24,3,29278,180,0.0,0.0,0.0,0.0,0.0,0.0,0.0,0.0,0.0,3,0,118
2,24,2,29279,180,0.0,0.0,0.0,0.0,0.0,0.0,0.0,0.0,0.0,3,0,227
2,24,2,29283,181,0.0,0.0,0.0,0.0,0.0,0.0,0.0,0.0,0.0,3,0,92
2,24,1,29285,181,0.0,0.0,0.0,0.0,0.0,0.0,0.0,0.0,0.0,3,0,184
2,24,3,29292,181,0.0,0.0,0.0,0.0,0.0,0.0,0.0,0.0,0.0,3,0,151
2,24,3,29296,182,0.0,0.0,0.0,0.0,0.0,0.0,0.0,0.0,0.0,3,0,65
2,24,1,29297,182,0.0,0.0,0.0,0.0,0.0,0.0,0.0,0.0,0.0,3,0,165
2,24,2,29299,182,0.0,0.0,0.0,0.0,0.0,0.0,0.0,0.0,0.0,3,0,167
2,24,2,29304,183,0.01544189453125,-0.956298828125,-0.27197265625,4.64630126953125,-7.20977783203125,-3.57818603515625,0.494384765625,-0.4991455078125,-0.0767822265625,11,0,220
2,24,3,29305,183,0.201171875,-0.96966552734375,-0.173583984375,2.38037109375,-4.0435791015625,-2.5482177734375,-0.5509033203125,0.4251708984375,0.3123779296875,11,0,170
2,24,1,29306,183,-0.2716064453125,0.91015625,-0.26702880859375,2.5634765625,-4.57763671875,-1.2054443359375,-0.0655517578125,-0.3304443359375,0.013916015625,11,0,34
2,24,2,29310,184,0.01544189453125,-0.956298828125,-0.27197265625,4.64630126953125,-7.20977783203125,-3.57818603515625,0.494384765625,-0.4991455078125,-0.0767822265625,11,0,140
2,24,1,29312,184,-0.2716064453125,0.91015625,-0.26702880859375,2.5634765625,-4.57763671875,-1.2054443359375,-0.0655517578125,-0.3304443359375,0.013916015625,11,0,53
2,24,3,29313,184,0.201171875,-0.96966552734375,-0.173583984375,2.38037109375,-4.0435791015625,-2.5482177734375,-0.5509033203125,0.4251708984375,0.3123779296875,11,0,206
2,24,2,29314,184,0.01544189453125,-0.956298828125,-0.27197265625,4.64630126953125,-7.20977783203125,-3.57818603515625,0.494384765625,-0.4991455078125,-0.0767822265625,11,0,203
2,24,3,29319,185,0.19818115234375,-0.9718017578125,-0.17510986328125,2.6092529296875,-4.1656494140625,-2.5177001953125,-0.547119140625,0.42529296875,0.3040771484375,11,0,47
2,24,1,29320,185,-0.2716064453125,0.91015625,-0.26702880859375,2.5634765625,-4.57763671875,-1.2054443359375,-0.0655517578125,-0.311279296875,0.0086669921875,11,0,11
2,24,2,29321,185,0.01544189453125,-0.956298828125,-0.27197265625,4.64630126953125,-7.20977783203125,-3.57818603515625,0.4915771484375,-0.5032958984375,-0.082763671875,11,0,252
2,24,3,29326,186,0.19818115234375,-0.9718017578125,-0.17510986328125,2.6092529296875,-4.1656494140625,-2.5177001953125,-0.547119140625,0.42529296875,0.3040771484375,11,0,52
2,24,1,29327,186,-0.2716064453125,0.91015625,-0.26702880859375,2.5634765625,-4.57763671875,-1.2054443359375,-0.0655517578125,-0.311279296875,0.0086669921875,11,0,78
2,24,2,29328,186,0.01544189453125,-0.956298828125,-0.27197265625,4.64630126953125,-7.20977783203125,-3.57818603515625,0.4915771484375,-0.5032958984375,-0.082763671875,11,0,118
2,24,1,29332,187,-0.2716064453125,0.91015625,-0.26702880859375,2.5634765625,-4.57763671875,-1.2054443359375,-0.0655517578125,-0.311279296875,0.0086669921875,11,0,251
2,24,3,29333,187,0.19818115234375,-0.9718017578125,-0.17510986328125,2.6092529296875,-4.1656494140625,-2.5177001953125,-0.547119140625,0.42529296875,0.3040771484375,11,0,129
2,24,2,29334,187,0.01544189453125,-0.956298828125,-0.27197265625,4.64630126953125,-7.20977783203125,-3.57818603515625,0.4915771484375,-0.5032958984375,-0.082763671875,11,0,197
2,24,1,29337,188,-0.2716064453125,0.91015625,-0.26702880859375,2.5634765625,-4.57763671875,-1.2054443359375,-0.063720703125,-0.312255859375,0.009033203125,11,0,11
2,24,3,29338,188,0.19818115234375,-0.9718017578125,-0.17510986328125,2.6092529296875,-4.1656494140625,-2.5177001953125,-0.552490234375,0.4239501953125,0.3079833984375,11,0,186
2,24,2,29339,188,0.0150146484375,-0.9556884765625,-0.2740478515625,4.53948974609375,-7.11822509765625,-3.41796875,0.4871826171875,-0.498046875,-0.0792236328125,11,0,144
2,24,1,29351,189,-0.26373291015625,0.91192626953125,-0.25982666015625,2.471923828125,-4.6234130859375,-0.9613037109375,-0.0626220703125,-0.3128662109375,0.002197265625,11,0,102
2,24,3,29352,189,0.19818115234375,-0.9718017578125,-0.17510986328125,2.6092529296875,-4.1656494140625,-2.5177001953125,-0.5518798828125,0.42431640625,0.310302734375,11,0,110
2,24,2,29353,189,0.0150146484375,-0.9556884765625,-0.2740478515625,4.53948974609375,-7.11822509765625,-3.41796875,0.4871826171875,-0.498046875,-0.0792236328125,11,0,113
2,24,1,29358,190,-0.26373291015625,0.91192626953125,-0.25982666015625,2.471923828125,-4.6234130859375,-0.9613037109375,-0.0626220703125,-0.3128662109375,0.002197265625,11,0,125
2,24,3,29359,190,0.19818115234375,-0.9718017578125,-0.17510986328125,2.6092529296875,-4.1656494140625,-2.5177001953125,-0.5518798828125,0.42431640625,0.310302734375,11,0,43
2,24,2,29360,190,0.0150146484375,-0.9556884765625,-0.2740478515625,4.53948974609375,-7.11822509765625,-3.41796875,0.489501953125,-0.5013427734375,-0.0792236328125,11,0,75
2,24,1,29363,191,-0.26373291015625,0.91192626953125,-0.25982666015625,2.471923828125,-4.6234130859375,-0.9613037109375,-0.0626220703125,-0.3128662109375,0.002197265625,11,0,93
2,24,2,29364,191,0.0150146484375,-0.9556884765625,-0.2740478515625,4.53948974609375,-7.11822509765625,-3.41796875,0.489501953125,-0.5013427734375,-0.0792236328125,11,0,139
2,24,3,29365,191,0.19818115234375,-0.9718017578125,-0.17510986328125,2.6092529296875,-4.1656494140625,-2.5177001953125,-0.5518798828125,0.42431640625,0.310302734375,11,0,36
2,24,1,29366,191,-0.26373291015625,0.91192626953125,-0.25982666015625,2.471923828125,-4.6234130859375,-0.9613037109375,-0.0626220703125,-0.3128662109375,0.002197265625,11,0,1
2,24,3,29371,192,0.19818115234375,-0.9718017578125,-0.17510986328125,2.6092529296875,-4.1656494140625,-2.5177001953125,-0.5570068359375,0.41748046875,0.3065185546875,11,0,132
2,24,2,29372,192,0.0150146484375,-0.9556884765625,-0.2740478515625,4.53948974609375,-7.11822509765625,-3.41796875,0.4910888671875,-0.4991455078125,-0.081787109375,11,0,62
2,24,1,29374,192,-0.26373291015625,0.91192626953125,-0.25982666015625,2.471923828125,-4.6234130859375,-0.9613037109375,-0.0657958984375,-0.3165283203125,0.0076904296875,11,0,210
2,24,1,29379,193,-0.26373291015625,0.91192626953125,-0.25982666015625,2.471923828125,-4.6234130859375,-0.9613037109375,-0.0657958984375,-0.3165283203125,0.0076904296875,11,0,157
2,24,3,29380,193,0.19818115234375,-0.9718017578125,-0.17510986328125,2.6092529296875,-4.1656494140625,-2.5177001953125,-0.5570068359375,0.41748046875,0.3065185546875,11,0,184
2,24,2,29382,193,0.0150146484375,-0.9556884765625,-0.2740478515625,4.53948974609375,-7.11822509765625,-3.41796875,0.4910888671875,-0.4991455078125,-0.081787109375,11,0,94
2,24,3,29386,194,0.19818115234375,-0.9718017578125,-0.17510986328125,2.6092529296875,-4.1656494140625,-2.5177001953125,-0.5560302734375,0.4180908203125,0.30712890625,11,0,169
2,24,1,29387,194,-0.26373291015625,0.91192626953125,-0.25982666015625,2.471923828125,-4.6234130859375,-0.9613037109375,-0.06396484375,-0.3271484375,0.0167236328125,11,0,195
2,24,2,29388,194,0.0150146484375,-0.9556884765625,-0.2740478515625,4.53948974609375,-7.11822509765625,-3.41796875,0.4910888671875,-0.4991455078125,-0.081787109375,11,0,140
2,24,1,29392,195,-0.26373291015625,0.91192626953125,-0.25982666015625,2.471923828125,-4.6234130859375,-0.9613037109375,-0.06396484375,-0.3271484375,0.0167236328125,11,0,118
2,24,3,29393,195,0.19818115234375,-0.9718017578125,-0.17510986328125,2.6092529296875,-4.1656494140625,-2.5177001953125,-0.5560302734375,0.4180908203125,0.30712890625,11,0,28
2,24,2,29397,195,0.0150146484375,-0.9556884765625,-0.2740478515625,4.53948974609375,-7.11822509765625,-3.41796875,0.4908447265625,-0.502197265625,-0.078857421875,11,0,126
2,24,3,29401,196,0.2010498046875,-0.97149658203125,-0.1710205078125,2.83050537109375,-3.65447998046875,-2.44140625,-0.5537109375,0.425048828125,0.299072265625,11,0,226
2,24,2,29402,196,0.0150146484375,-0.9556884765625,-0.2740478515625,4.53948974609375,-7.11822509765625,-3.41796875,0.4908447265625,-0.502197265625,-0.078857421875,11,0,104
2,24,1,29403,196,-0.26373291015625,0.91192626953125,-0.25982666015625,2.471923828125,-4.6234130859375,-0.9613037109375,-0.0638427734375,-0.3143310546875,0.0126953125,11,0,82
2,24,3,29408,197,0.2010498046875,-0.97149658203125,-0.1710205078125,2.83050537109375,-3.65447998046875,-2.44140625,-0.5537109375,0.425048828125,0.299072265625,11,0,1
2,24,1,29409,197,-0.26373291015625,0.91192626953125,-0.25982666015625,2.471923828125,-4.6234130859375,-0.9613037109375,-0.0638427734375,-0.3143310546875,0.0126953125,11,0,120
2,24,2,29410,197,0.011474609375,-0.95758056640625,-0.2742919921875,4.53948974609375,-7.02667236328125,-3.28826904296875,0.498046875,-0.50244140625,-0.0823974609375,11,0,184
2,24,3,29413,198,0.2010498046875,-0.97149658203125,-0.1710205078125,2.83050537109375,-3.65447998046875,-2.44140625,-0.5537109375,0.425048828125,0.299072265625,11,0,55
2,24,2,29414,198,0.011474609375,-0.95758056640625,-0.2742919921875,4.53948974609375,-7.02667236328125,-3.28826904296875,0.498046875,-0.50244140625,-0.0823974609375,11,0,52
2,24,1,29419,198,-0.26373291015625,0.91192626953125,-0.25982666015625,2.471923828125,-4.6234130859375,-0.9613037109375,-0.0638427734375,-0.3143310546875,0.0126953125,11,0,170
2,24,3,29424,199,0.2010498046875,-0.97149658203125,-0.1710205078125,2.83050537109375,-3.65447998046875,-2.44140625,-0.5555419921875,0.4228515625,0.3070068359375,11,0,11
2,24,2,29428,199,0.011474609375,-0.95758056640625,-0.2742919921875,4.53948974609375,-7.02667236328125,-3.28826904296875,0.4881591796875,-0.503173828125,-0.08203125,11,0,233
2,24,1,29430,199,-0.2730712890625,0.912109375,-0.2685546875,2.86102294921875,-4.84466552734375,-0.63323974609375,-0.0604248046875,-0.3111572265625,0.0087890625,11,0,140
2,24,3,29436,200,0.2010498046875,-0.97149658203125,-0.1710205078125,2.83050537109375,-3.65447998046875,-2.44140625,-0.5555419921875,0.4228515625,0.3070068359375,11,0,227
2,24,2,29436,200,0.011474609375,-0.95758056640625,-0.2742919921875,4.53948974609375,-7.02667236328125,-3.28826904296875,0.4881591796875,-0.503173828125,-0.08203125,11,0,231
2,24,1,29438,200,-0.2730712890625,0.912109375,-0.2685546875,2.86102294921875,-4.84466552734375,-0.63323974609375,-0.0604248046875,-0.3111572265625,0.0087890625,11,0,130
2,24,3,29442,201,0.2010498046875,-0.97149658203125,-0.1710205078125,2.83050537109375,-3.65447998046875,-2.44140625,-0.548095703125,0.421875,0.304443359375,11,0,22
2,24,2,29443,201,0.011474609375,-0.95758056640625,-0.2742919921875,4.53948974609375,-7.02667236328125,-3.28826904296875,0.498291015625,-0.5032958984375,-0.0777587890625,11,0,33
2,24,1,29444,201,-0.2730712890625,0.912109375,-0.2685546875,2.86102294921875,-4.84466552734375,-0.63323974609375,-0.06640625,-0.3134765625,0.01904296875,11,0,112
2,24,1,29455,202,-0.2730712890625,0.912109375,-0.2685546875,2.86102294921875,-4.84466552734375,-0.63323974609375,-0.0648193359375,-0.3114013671875,0.0069580078125,11,0,222
2,24,3,29456,202,0.2010498046875,-0.97149658203125,-0.1710205078125,2.83050537109375,-3.65447998046875,-2.44140625,-0.5504150390625,0.4127197265625,0.302490234375,11,0,85
2,24,2,29457,202,0.011474609375,-0.95758056640625,-0.2742919921875,4.53948974609375,-7.02667236328125,-3.28826904296875,0.498291015625,-0.5032958984375,-0.0777587890625,11,0,169
2,24,1,29466,203,-0.2730712890625,0.912109375,-0.2685546875,2.86102294921875,-4.84466552734375,-0.63323974609375,-0.0648193359375,-0.3114013671875,0.0069580078125,11,0,53
2,24,2,29467,203,0.011474609375,-0.95758056640625,-0.2742919921875,4.53948974609375,-7.02667236328125,-3.28826904296875,0.49365234375,-0.50146484375,-0.0843505859375,11,0,69
2,24,3,29469,203,0.2010498046875,-0.97149658203125,-0.1710205078125,2.83050537109375,-3.65447998046875,-2.44140625,-0.5504150390625,0.4127197265625,0.302490234375,11,0,228
2,24,3,29478,204,0.21026611328125,-0.96771240234375,-0.16888427734375,2.93731689453125,-3.37982177734375,-2.52532958984375,-0.552978515625,0.427490234375,0.302001953125,11,0,68
2,24,1,29479,204,-0.2730712890625,0.912109375,-0.2685546875,2.86102294921875,-4.84466552734375,-0.63323974609375,-0.0628662109375,-0.3140869140625,0.0157470703125,11,0,127
2,24,2,29480,204,0.011474609375,-0.95758056640625,-0.2742919921875,4.53948974609375,-7.02667236328125,-3.28826904296875,0.4979248046875,-0.5010986328125,-0.075439453125,11,0,173
2,24,3,29483,205,0.21026611328125,-0.96771240234375,-0.16888427734375,2.93731689453125,-3.37982177734375,-2.52532958984375,-0.552978515625,0.427490234375,0.302001953125,11,0,245
2,24,2,29484,205,0.011474609375,-0.95758056640625,-0.2742919921875,4.53948974609375,-7.02667236328125,-3.28826904296875,0.4979248046875,-0.5010986328125,-0.075439453125,11,0,109
2,24,1,29490,205,-0.2730712890625,0.912109375,-0.2685546875,2.86102294921875,-4.84466552734375,-0.63323974609375,-0.0628662109375,-0.3140869140625,0.0157470703125,11,0,148
2,24,1,29494,206,-0.2730712890625,0.912109375,-0.2685546875,2.86102294921875,-4.84466552734375,-0.63323974609375,-0.0625,-0.3170166015625,0.0142822265625,11,0,172
2,24,2,29495,206,0.0130615234375,-0.95538330078125,-0.27264404296875,4.3182373046875,-6.9427490234375,-3.23486328125,0.500732421875,-0.50048828125,-0.0809326171875,11,0,4
2,24,3,29496,206,0.21026611328125,-0.96771240234375,-0.16888427734375,2.93731689453125,-3.37982177734375,-2.52532958984375,-0.551025390625,0.4263916015625,0.3072509765625,11,0,36
2,24,1,29502,207,-0.2730712890625,0.912109375,-0.2685546875,2.86102294921875,-4.84466552734375,-0.63323974609375,-0.0625,-0.3170166015625,0.0142822265625,11,0,65
2,24,3,29504,207,0.21026611328125,-0.96771240234375,-0.16888427734375,2.93731689453125,-3.37982177734375,-2.52532958984375,-0.551025390625,0.4263916015625,0.3072509765625,11,0,55
2,24,2,29507,207,0.0130615234375,-0.95538330078125,-0.27264404296875,4.3182373046875,-6.9427490234375,-3.23486328125,0.500732421875,-0.50048828125,-0.0809326171875,11,0,58
2,24,2,29519,208,0.0130615234375,-0.95538330078125,-0.27264404296875,4.3182373046875,-6.9427490234375,-3.23486328125,0.4935302734375,-0.5006103515625,-0.08837890625,11,0,56
2,24,3,29520,208,0.21026611328125,-0.96771240234375,-0.16888427734375,2.93731689453125,-3.37982177734375,-2.52532958984375,-0.55517578125,0.42626953125,0.3076171875,11,0,78
2,24,1,29522,208,-0.25799560546875,0.91168212890625,-0.25848388671875,3.021240234375,-5.43212890625,-0.28228759765625,-0.0596923828125,-0.330322265625,0.0172119140625,11,0,215
2,24,3,29531,209,0.21026611328125,-0.96771240234375,-0.16888427734375,2.93731689453125,-3.37982177734375,-2.52532958984375,-0.5516357421875,0.4061279296875,0.304443359375,11,0,24
2,24,2,29532,209,0.0130615234375,-0.95538330078125,-0.27264404296875,4.3182373046875,-6.9427490234375,-3.23486328125,0.4970703125,-0.4998779296875,-0.083740234375,11,0,203
2,24,1,29533,209,-0.25799560546875,0.91168212890625,-0.25848388671875,3.021240234375,-5.43212890625,-0.28228759765625,-0.064208984375,-0.3154296875,0.017578125,11,0,162
2,24,3,29536,210,0.21026611328125,-0.96771240234375,-0.16888427734375,2.93731689453125,-3.37982177734375,-2.52532958984375,-0.5516357421875,0.4061279296875,0.304443359375,11,0,196
2,24,1,29537,210,-0.25799560546875,0.91168212890625,-0.25848388671875,3.021240234375,-5.43212890625,-0.28228759765625,-0.064208984375,-0.3154296875,0.017578125,11,0,81
2,24,2,29538,210,0.0130615234375,-0.95538330078125,-0.27264404296875,4.3182373046875,-6.9427490234375,-3.23486328125,0.4970703125,-0.4998779296875,-0.083740234375,11,0,75
2,24,3,29543,211,0.21026611328125,-0.96771240234375,-0.16888427734375,2.93731689453125,-3.37982177734375,-2.52532958984375,-0.5533447265625,0.428466796875,0.306640625,11,0,63
2,24,1,29544,211,-0.25799560546875,0.91168212890625,-0.25848388671875,3.021240234375,-5.43212890625,-0.28228759765625,-0.0625,-0.31201171875,0.0145263671875,11,0,150
2,24,2,29545,211,0.0130615234375,-0.95538330078125,-0.27264404296875,4.3182373046875,-6.9427490234375,-3.23486328125,0.4970703125,-0.4998779296875,-0.083740234375,11,0,111
2,24,3,29549,212,0.21026611328125,-0.96771240234375,-0.16888427734375,2.93731689453125,-3.37982177734375,-2.52532958984375,-0.5533447265625,0.428466796875,0.306640625,11,0,117
2,24,2,29550,212,0.0130615234375,-0.95538330078125,-0.27264404296875,4.3182373046875,-6.9427490234375,-3.23486328125,0.486083984375,-0.5030517578125,-0.0738525390625,11,0,42
2,24,1,29551,212,-0.25799560546875,0.91168212890625,-0.25848388671875,3.021240234375,-5.43212890625,-0.28228759765625,-0.0625,-0.31201171875,0.0145263671875,11,0,75
2,24,3,29555,213,0.21026611328125,-0.96771240234375,-0.16888427734375,2.93731689453125,-3.37982177734375,-2.52532958984375,-0.5533447265625,0.428466796875,0.306640625,11,0,156
2,24,2,29556,213,0.0130615234375,-0.95538330078125,-0.27264404296875,4.3182373046875,-6.9427490234375,-3.23486328125,0.486083984375,-0.5030517578125,-0.0738525390625,11,0,37
2,24,1,29557,213,-0.25799560546875,0.91168212890625,-0.25848388671875,3.021240234375,-5.43212890625,-0.28228759765625,-0.0625,-0.31201171875,0.0145263671875,11,0,68
2,24,3,29561,214,0.2012939453125,-0.96929931640625,-0.169189453125,2.92205810546875,-3.23486328125,-2.74658203125,-0.552001953125,0.4195556640625,0.298828125,11,0,138
2,24,1,29562,214,-0.25799560546875,0.91168212890625,-0.25848388671875,3.021240234375,-5.43212890625,-0.28228759765625,-0.0648193359375,-0.326904296875,0.0130615234375,11,0,26
2,24,2,29563,214,0.0130615234375,-0.95538330078125,-0.27264404296875,4.3182373046875,-6.9427490234375,-3.23486328125,0.486083984375,-0.5030517578125,-0.0738525390625,11,0,171
2,24,3,29569,215,0.2012939453125,-0.96929931640625,-0.169189453125,2.92205810546875,-3.23486328125,-2.74658203125,-0.552001953125,0.4195556640625,0.298828125,11,0,13
2,24,2,29570,215,0.01544189453125,-0.95465087890625,-0.27362060546875,4.57763671875,-6.91986083984375,-3.47137451171875,0.4931640625,-0.4996337890625,-0.07666015625,11,0,177
2,24,1,29571,215,-0.25799560546875,0.91168212890625,-0.25848388671875,3.021240234375,-5.43212890625,-0.28228759765625,-0.0648193359375,-0.326904296875,0.0130615234375,11,0,39
2,24,2,29575,216,0.01544189453125,-0.95465087890625,-0.27362060546875,4.57763671875,-6.91986083984375,-3.47137451171875,0.4931640625,-0.4996337890625,-0.07666015625,11,0,40
2,24,3,29576,216,0.2012939453125,-0.96929931640625,-0.169189453125,2.92205810546875,-3.23486328125,-2.74658203125,-0.551025390625,0.403076171875,0.3135986328125,11,0,214
2,24,1,29579,216,-0.26629638671875,0.90679931640625,-0.26318359375,3.16619873046875,-5.3558349609375,-0.1983642578125,-0.065673828125,-0.3292236328125,0.0181884765625,11,0,137
2,24,3,29587,217,0.2012939453125,-0.96929931640625,-0.169189453125,2.92205810546875,-3.23486328125,-2.74658203125,-0.551025390625,0.403076171875,0.3135986328125,11,0,99
2,24,1,29588,217,-0.26629638671875,0.90679931640625,-0.26318359375,3.16619873046875,-5.3558349609375,-0.1983642578125,-0.065673828125,-0.3292236328125,0.0181884765625,11,0,218
2,24,2,29589,217,0.01544189453125,-0.95465087890625,-0.27362060546875,4.57763671875,-6.91986083984375,-3.47137451171875,0.4910888671875,-0.4984130859375,-0.077392578125,11,0,173
2,24,3,29593,218,0.2012939453125,-0.96929931640625,-0.169189453125,2.92205810546875,-3.23486328125,-2.74658203125,-0.5487060546875,0.4256591796875,0.3135986328125,11,0,233
2,24,1,29594,218,-0.26629638671875,0.90679931640625,-0.26318359375,3.16619873046875,-5.3558349609375,-0.1983642578125,-0.0662841796875,-0.329345703125,0.00439453125,11,0,48
2,24,2,29595,218,0.01544189453125,-0.95465087890625,-0.27362060546875,4.57763671875,-6.91986083984375,-3.47137451171875,0.4910888671875,-0.4984130859375,-0.077392578125,11,0,153
2,24,3,29599,219,0.2012939453125,-0.96929931640625,-0.169189453125,2.92205810546875,-3.23486328125,-2.74658203125,-0.5487060546875,0.4256591796875,0.3135986328125,11,0,90
2,24,2,29600,219,0.01544189453125,-0.95465087890625,-0.27362060546875,4.57763671875,-6.91986083984375,-3.47137451171875,0.49951171875,-0.4993896484375,-0.080322265625,11,0,227
2,24,1,29601,219,-0.26629638671875,0.90679931640625,-0.26318359375,3.16619873046875,-5.3558349609375,-0.1983642578125,-0.0662841796875,-0.329345703125,0.00439453125,11,0,160
2,24,3,29604,220,0.2012939453125,-0.96929931640625,-0.169189453125,2.92205810546875,-3.23486328125,-2.74658203125,-0.5487060546875,0.4256591796875,0.3135986328125,11,0,30
2,24,1,29605,220,-0.26629638671875,0.90679931640625,-0.26318359375,3.16619873046875,-5.3558349609375,-0.1983642578125,-0.0662841796875,-0.329345703125,0.00439453125,11,0,180
2,24,2,29607,220,0.01544189453125,-0.95465087890625,-0.27362060546875,4.57763671875,-6.91986083984375,-3.47137451171875,0.49951171875,-0.4993896484375,-0.080322265625,11,0,62
2,24,1,29610,221,-0.26629638671875,0.90679931640625,-0.26318359375,3.16619873046875,-5.3558349609375,-0.1983642578125,-0.0675048828125,-0.327880859375,0.016357421875,11,0,13
2,24,2,29612,221,0.01544189453125,-0.95465087890625,-0.27362060546875,4.57763671875,-6.91986083984375,-3.47137451171875,0.49951171875,-0.4993896484375,-0.080322265625,11,0,26
2,24,3,29613,221,0.2012939453125,-0.96929931640625,-0.169189453125,2.92205810546875,-3.23486328125,-2.74658203125,-0.55126953125,0.404052734375,0.3072509765625,11,0,224
2,24,3,29617,222,0.2012939453125,-0.96929931640625,-0.169189453125,2.92205810546875,-3.23486328125,-2.74658203125,-0.55126953125,0.404052734375,0.3072509765625,11,0,54
2,24,2,29618,222,0.01544189453125,-0.95465087890625,-0.27362060546875,4.57763671875,-6.91986083984375,-3.47137451171875,0.4979248046875,-0.503173828125,-0.080078125,11,0,198
2,24,1,29620,222,-0.26629638671875,0.90679931640625,-0.26318359375,3.16619873046875,-5.3558349609375,-0.1983642578125,-0.0675048828125,-0.327880859375,0.016357421875,11,0,168
2,24,3,29623,223,0.2012939453125,-0.96929931640625,-0.169189453125,2.92205810546875,-3.23486328125,-2.74658203125,-0.55126953125,0.404052734375,0.3072509765625,11,0,133
2,24,2,29624,223,0.01544189453125,-0.95465087890625,-0.27362060546875,4.57763671875,-6.91986083984375,-3.47137451171875,0.4979248046875,-0.503173828125,-0.080078125,11,0,88
2,24,1,29625,223,-0.26629638671875,0.90679931640625,-0.26318359375,3.16619873046875,-5.3558349609375,-0.1983642578125,-0.0675048828125,-0.327880859375,0.016357421875,11,0,25
2,24,2,29626,223,0.01544189453125,-0.95465087890625,-0.27362060546875,4.57763671875,-6.91986083984375,-3.47137451171875,0.4979248046875,-0.503173828125,-0.080078125,11,0,43
2,24,3,29637,224,0.1971435546875,-0.97174072265625,-0.1724853515625,3.22723388671875,-4.08172607421875,-2.18963623046875,-0.55322265625,0.421875,0.301513671875,11,0,10
2,24,1,29640,224,-0.26629638671875,0.90679931640625,-0.26318359375,3.16619873046875,-5.3558349609375,-0.1983642578125,-0.0684814453125,-0.3145751953125,0.012939453125,11,0,134
2,24,2,29641,224,0.01544189453125,-0.95465087890625,-0.27362060546875,4.57763671875,-6.91986083984375,-3.47137451171875,0.498779296875,-0.4974365234375,-0.0882568359375,11,0,147
2,24,3,29646,225,0.1971435546875,-0.97174072265625,-0.1724853515625,3.22723388671875,-4.08172607421875,-2.18963623046875,-0.5511474609375,0.426025390625,0.310546875,11,0,235
2,24,2,29647,225,0.01544189453125,-0.95465087890625,-0.27362060546875,4.57763671875,-6.91986083984375,-3.47137451171875,0.498779296875,-0.4974365234375,-0.0882568359375,11,0,32
2,24,1,29648,225,-0.26629638671875,0.90679931640625,-0.26318359375,3.16619873046875,-5.3558349609375,-0.1983642578125,-0.065673828125,-0.3145751953125,0.0133056640625,11,0,125
2,24,3,29651,226,0.1971435546875,-0.97174072265625,-0.1724853515625,3.22723388671875,-4.08172607421875,-2.18963623046875,-0.5511474609375,0.426025390625,0.310546875,11,0,135
2,24,2,29652,226,0.015625,-0.95660400390625,-0.27587890625,4.37164306640625,-6.805419921875,-3.387451171875,0.4979248046875,-0.502685546875,-0.0745849609375,11,0,16
2,24,1,29653,226,-0.26629638671875,0.90679931640625,-0.26318359375,3.16619873046875,-5.3558349609375,-0.1983642578125,-0.065673828125,-0.3145751953125,0.0133056640625,11,0,75
2,24,1,29657,227,-0.26629638671875,0.90679931640625,-0.26318359375,3.16619873046875,-5.3558349609375,-0.1983642578125,-0.065673828125,-0.3145751953125,0.0133056640625,11,0,64
2,24,3,29658,227,0.1971435546875,-0.97174072265625,-0.1724853515625,3.22723388671875,-4.08172607421875,-2.18963623046875,-0.5511474609375,0.426025390625,0.310546875,11,0,208
2,24,2,29663,227,0.015625,-0.95660400390625,-0.27587890625,4.37164306640625,-6.805419921875,-3.387451171875,0.4979248046875,-0.502685546875,-0.0745849609375,11,0,52
2,24,2,29667,228,0.015625,-0.95660400390625,-0.27587890625,4.37164306640625,-6.805419921875,-3.387451171875,0.494873046875,-0.5054931640625,-0.0738525390625,11,0,35
2,24,3,29668,228,0.1971435546875,-0.97174072265625,-0.1724853515625,3.22723388671875,-4.08172607421875,-2.18963623046875,-0.5477294921875,0.425048828125,0.302978515625,11,0,183
2,24,1,29669,228,-0.27264404296875,0.9111328125,-0.265869140625,3.4027099609375,-4.33349609375,-0.29754638671875,-0.0665283203125,-0.3165283203125,0.0054931640625,11,0,91
2,24,3,29672,229,0.1971435546875,-0.97174072265625,-0.1724853515625,3.22723388671875,-4.08172607421875,-2.18963623046875,-0.5477294921875,0.425048828125,0.302978515625,11,0,188
2,24,1,29673,229,-0.27264404296875,0.9111328125,-0.265869140625,3.4027099609375,-4.33349609375,-0.29754638671875,-0.0665283203125,-0.3165283203125,0.0054931640625,11,0,80
2,24,2,29674,229,0.015625,-0.95660400390625,-0.27587890625,4.37164306640625,-6.805419921875,-3.387451171875,0.494873046875,-0.5054931640625,-0.0738525390625,11,0,116
2,24,2,29678,230,0.015625,-0.95660400390625,-0.27587890625,4.37164306640625,-6.805419921875,-3.387451171875,0.494873046875,-0.5054931640625,-0.0738525390625,11,0,248
2,24,1,29679,230,-0.27264404296875,0.9111328125,-0.265869140625,3.4027099609375,-4.33349609375,-0.29754638671875,-0.0665283203125,-0.3165283203125,0.0054931640625,11,0,175
2,24,3,29681,230,0.1971435546875,-0.97174072265625,-0.1724853515625,3.22723388671875,-4.08172607421875,-2.18963623046875,-0.5477294921875,0.425048828125,0.302978515625,11,0,54
2,24,3,29685,231,0.1971435546875,-0.97174072265625,-0.1724853515625,3.22723388671875,-4.08172607421875,-2.18963623046875,-0.55078125,0.4053955078125,0.30517578125,11,0,88
2,24,2,29686,231,0.015625,-0.95660400390625,-0.27587890625,4.37164306640625,-6.805419921875,-3.387451171875,0.489990234375,-0.499755859375,-0.0772705078125,11,0,32
2,24,1,29688,231,-0.27264404296875,0.9111328125,-0.265869140625,3.4027099609375,-4.33349609375,-0.29754638671875,-0.0616455078125,-0.314697265625,0.008544921875,11,0,206
2,24,1,29691,232,-0.27264404296875,0.9111328125,-0.265869140625,3.4027099609375,-4.33349609375,-0.29754638671875,-0.0616455078125,-0.314697265625,0.008544921875,11,0,194
2,24,2,29692,232,0.015625,-0.95660400390625,-0.27587890625,4.37164306640625,-6.805419921875,-3.387451171875,0.489990234375,-0.499755859375,-0.0772705078125,11,0,93
2,24,3,29698,232,0.1971435546875,-0.97174072265625,-0.1724853515625,3.22723388671875,-4.08172607421875,-2.18963623046875,-0.55078125,0.4053955078125,0.30517578125,11,0,98
2,24,3,29703,233,0.1971435546875,-0.97174072265625,-0.1724853515625,3.22723388671875,-4.08172607421875,-2.18963623046875,-0.548828125,0.4281005859375,0.3070068359375,11,0,35
2,24,2,29704,233,0.015625,-0.95660400390625,-0.27587890625,4.37164306640625,-6.805419921875,-3.387451171875,0.489013671875,-0.49755859375,-0.079833984375,11,0,240
2,24,1,29705,233,-0.27264404296875,0.9111328125,-0.265869140625,3.4027099609375,-4.33349609375,-0.29754638671875,-0.0643310546875,-0.3125,0.013916015625,11,0,62
2,24,3,29711,234,0.1971435546875,-0.97174072265625,-0.1724853515625,3.22723388671875,-4.08172607421875,-2.18963623046875,-0.548828125,0.4281005859375,0.3070068359375,11,0,130
2,24,1,29712,234,-0.27264404296875,0.9111328125,-0.265869140625,3.4027099609375,-4.33349609375,-0.29754638671875,-0.0643310546875,-0.3125,0.013916015625,11,0,180
2,24,2,29713,234,0.015625,-0.95660400390625,-0.27587890625,4.37164306640625,-6.805419921875,-3.387451171875,0.489013671875,-0.49755859375,-0.079833984375,11,0,122
2,24,2,29717,235,0.015625,-0.95660400390625,-0.27587890625,4.37164306640625,-6.805419921875,-3.387451171875,0.49609375,-0.4981689453125,-0.0799560546875,11,0,156
2,24,3,29718,235,0.20269775390625,-0.96905517578125,-0.16851806640625,3.53240966796875,-4.23431396484375,-2.2125244140625,-0.5538330078125,0.4261474609375,0.2998046875,11,0,230
2,24,1,29722,235,-0.27264404296875,0.9111328125,-0.265869140625,3.4027099609375,-4.33349609375,-0.29754638671875,-0.064208984375,-0.3115234375,0.00927734375,11,0,61
2,24,3,29729,236,0.20269775390625,-0.96905517578125,-0.16851806640625,3.53240966796875,-4.23431396484375,-2.2125244140625,-0.5538330078125,0.4261474609375,0.2998046875,11,0,143
2,24,1,29730,236,-0.27264404296875,0.9111328125,-0.265869140625,3.4027099609375,-4.33349609375,-0.29754638671875,-0.064208984375,-0.3115234375,0.00927734375,11,0,176
2,24,2,29731,236,0.015625,-0.95660400390625,-0.27587890625,4.37164306640625,-6.805419921875,-3.387451171875,0.49609375,-0.4981689453125,-0.0799560546875,11,0,79
2,24,2,29736,237,0.0157470703125,-0.953857421875,-0.27398681640625,4.15802001953125,-6.72149658203125,-3.39508056640625,0.4881591796875,-0.5006103515625,-0.073486328125,11,0,112
2,24,1,29737,237,-0.25958251953125,0.90771484375,-0.2645263671875,3.60107421875,-4.08172607421875,-0.06866455078125,-0.061767578125,-0.3111572265625,0.0106201171875,11,0,150
2,24,3,29738,237,0.20269775390625,-0.96905517578125,-0.16851806640625,3.53240966796875,-4.23431396484375,-2.2125244140625,-0.55419921875,0.421630859375,0.3037109375,11,0,150
2,24,3,29741,238,0.20269775390625,-0.96905517578125,-0.16851806640625,3.53240966796875,-4.23431396484375,-2.2125244140625,-0.55419921875,0.421630859375,0.3037109375,11,0,211
2,24,2,29742,238,0.0157470703125,-0.953857421875,-0.27398681640625,4.15802001953125,-6.72149658203125,-3.39508056640625,0.4881591796875,-0.5006103515625,-0.073486328125,11,0,143
2,24,1,29743,238,-0.25958251953125,0.90771484375,-0.2645263671875,3.60107421875,-4.08172607421875,-0.06866455078125,-0.061767578125,-0.3111572265625,0.0106201171875,11,0,105
2,24,1,29748,239,-0.25958251953125,0.90771484375,-0.2645263671875,3.60107421875,-4.08172607421875,-0.06866455078125,-0.061767578125,-0.3111572265625,0.0106201171875,11,0,220
2,24,2,29749,239,0.0157470703125,-0.953857421875,-0.27398681640625,4.15802001953125,-6.72149658203125,-3.39508056640625,0.4881591796875,-0.5006103515625,-0.073486328125,11,0,58
2,24,3,29750,239,0.20269775390625,-0.96905517578125,-0.16851806640625,3.53240966796875,-4.23431396484375,-2.2125244140625,-0.55419921875,0.421630859375,0.3037109375,11,0,102
2,24,1,29755,240,-0.25958251953125,0.90771484375,-0.2645263671875,3.60107421875,-4.08172607421875,-0.06866455078125,-0.0609130859375,-0.3135986328125,0.01708984375,11,0,11
2,24,2,29757,240,0.0157470703125,-0.953857421875,-0.27398681640625,4.15802001953125,-6.72149658203125,-3.39508056640625,0.4871826171875,-0.5032958984375,-0.070068359375,11,0,232
2,24,3,29808,241,0.19708251953125,-0.97320556640625,-0.1693115234375,3.65447998046875,-4.180908203125,-1.70135498046875,-0.5498046875,0.431396484375,0.3048095703125,11,0,175
2,24,2,29809,241,0.01678466796875,-0.95654296875,-0.27923583984375,4.180908203125,-6.65283203125,-3.28826904296875,0.4940185546875,-0.500732421875,-0.07470703125,11,0,205
2,24,1,29810,241,-0.25958251953125,0.90771484375,-0.2645263671875,3.60107421875,-4.08172607421875,-0.06866455078125,-0.0628662109375,-0.3121337890625,0.0234375,11,0,4
2,24,3,29814,242,0.19708251953125,-0.97320556640625,-0.1693115234375,3.65447998046875,-4.180908203125,-1.70135498046875,-0.5498046875,0.431396484375,0.3048095703125,11,0,80
2,24,2,29815,242,0.01678466796875,-0.95654296875,-0.27923583984375,4.180908203125,-6.65283203125,-3.28826904296875,0.4940185546875,-0.500732421875,-0.07470703125,11,0,50
2,24,1,29817,242,-0.25958251953125,0.90771484375,-0.2645263671875,3.60107421875,-4.08172607421875,-0.06866455078125,-0.0628662109375,-0.3121337890625,0.0234375,11,0,108
2,24,3,29821,243,0.19708251953125,-0.97320556640625,-0.1693115234375,3.65447998046875,-4.180908203125,-1.70135498046875,-0.550537109375,0.403076171875,0.30908203125,11,0,92
2,24,1,29822,243,-0.26800537109375,0.91229248046875,-0.272705078125,3.8909912109375,-4.1046142578125,-0.12969970703125,-0.057861328125,-0.3134765625,0.004638671875,11,0,112
2,24,2,29824,243,0.01678466796875,-0.95654296875,-0.27923583984375,4.180908203125,-6.65283203125,-3.28826904296875,0.4940185546875,-0.500732421875,-0.07470703125,11,0,81
2,24,3,29828,244,0.19708251953125,-0.97320556640625,-0.1693115234375,3.65447998046875,-4.180908203125,-1.70135498046875,-0.550537109375,0.403076171875,0.30908203125,11,0,181
2,24,2,29829,244,0.01678466796875,-0.95654296875,-0.27923583984375,4.180908203125,-6.65283203125,-3.28826904296875,0.49365234375,-0.50048828125,-0.0845947265625,11,0,147
2,24,1,29830,244,-0.26800537109375,0.91229248046875,-0.272705078125,3.8909912109375,-4.1046142578125,-0.12969970703125,-0.057861328125,-0.3134765625,0.004638671875,11,0,35
2,24,2,29834,245,0.01678466796875,-0.95654296875,-0.27923583984375,4.180908203125,-6.65283203125,-3.28826904296875,0.49365234375,-0.50048828125,-0.0845947265625,11,0,81
2,24,3,29835,245,0.19708251953125,-0.97320556640625,-0.1693115234375,3.65447998046875,-4.180908203125,-1.70135498046875,-0.550537109375,0.403076171875,0.30908203125,11,0,119
2,24,1,29836,245,-0.26800537109375,0.91229248046875,-0.272705078125,3.8909912109375,-4.1046142578125,-0.12969970703125,-0.057861328125,-0.3134765625,0.004638671875,11,0,189
2,24,3,29839,246,0.19708251953125,-0.97320556640625,-0.1693115234375,3.65447998046875,-4.180908203125,-1.70135498046875,-0.548583984375,0.4276123046875,0.3038330078125,11,0,188
2,24,1,29840,246,-0.26800537109375,0.91229248046875,-0.272705078125,3.8909912109375,-4.1046142578125,-0.12969970703125,-0.062255859375,-0.318603515625,0.008056640625,11,0,23
2,24,2,29841,246,0.01678466796875,-0.95654296875,-0.27923583984375,4.180908203125,-6.65283203125,-3.28826904296875,0.49365234375,-0.50048828125,-0.0845947265625,11,0,168
2,24,3,29850,247,0.19708251953125,-0.97320556640625,-0.1693115234375,3.65447998046875,-4.180908203125,-1.70135498046875,-0.548583984375,0.4276123046875,0.3038330078125,11,0,87
2,24,2,29851,247,0.01678466796875,-0.95654296875,-0.27923583984375,4.180908203125,-6.65283203125,-3.28826904296875,0.4952392578125,-0.5072021484375,-0.0799560546875,11,0,168
2,24,1,29853,247,-0.26800537109375,0.91229248046875,-0.272705078125,3.8909912109375,-4.1046142578125,-0.12969970703125,-0.062255859375,-0.318603515625,0.008056640625,11,0,166
2,24,3,29857,248,0.19708251953125,-0.97320556640625,-0.1693115234375,3.65447998046875,-4.180908203125,-1.70135498046875,-0.550048828125,0.4302978515625,0.308837890625,11,0,121
2,24,1,29858,248,-0.26800537109375,0.91229248046875,-0.272705078125,3.8909912109375,-4.1046142578125,-0.12969970703125,-0.060546875,-0.3306884765625,0.018798828125,11,0,5
2,24,2,29860,248,0.01678466796875,-0.95654296875,-0.27923583984375,4.180908203125,-6.65283203125,-3.28826904296875,0.4952392578125,-0.5072021484375,-0.0799560546875,11,0,61
2,24,3,29862,248,0.19708251953125,-0.97320556640625,-0.1693115234375,3.65447998046875,-4.180908203125,-1.70135498046875,-0.550048828125,0.4302978515625,0.308837890625,11,0,86
2,24,1,29868,249,-0.26800537109375,0.91229248046875,-0.272705078125,3.8909912109375,-4.1046142578125,-0.12969970703125,-0.060546875,-0.3306884765625,0.018798828125,11,0,125
2,24,2,29869,249,0.01678466796875,-0.95654296875,-0.27923583984375,4.180908203125,-6.65283203125,-3.28826904296875,0.4957275390625,-0.4998779296875,-0.0704345703125,11,0,116
2,24,3,29871,249,0.19708251953125,-0.97320556640625,-0.1693115234375,3.65447998046875,-4.180908203125,-1.70135498046875,-0.550048828125,0.4302978515625,0.308837890625,11,0,1
2,24,1,29873,249,-0.26800537109375,0.91229248046875,-0.272705078125,3.8909912109375,-4.1046142578125,-0.12969970703125,-0.060546875,-0.3306884765625,0.018798828125,11,0,123
2,24,2,29875,250,0.01678466796875,-0.95654296875,-0.27923583984375,4.180908203125,-6.65283203125,-3.28826904296875,0.4957275390625,-0.4998779296875,-0.0704345703125,11,0,209
2,24,3,29876,250,0.19561767578125,-0.97125244140625,-0.16900634765625,3.83758544921875,-4.364013671875,-1.8157958984375,-0.551513671875,0.4078369140625,0.304931640625,11,0,205
2,24,1,29877,250,-0.26800537109375,0.91229248046875,-0.272705078125,3.8909912109375,-4.1046142578125,-0.12969970703125,-0.0623779296875,-0.32568359375,0.020751953125,11,0,213
2,24,3,29881,251,0.19561767578125,-0.97125244140625,-0.16900634765625,3.83758544921875,-4.364013671875,-1.8157958984375,-0.551513671875,0.4078369140625,0.304931640625,11,0,124
2,24,2,29882,251,0.01409912109375,-0.9547119140625,-0.2747802734375,4.2266845703125,-6.55364990234375,-2.96783447265625,0.499267578125,-0.4996337890625,-0.070556640625,11,0,150
2,24,1,29886,251,-0.26800537109375,0.91229248046875,-0.272705078125,3.8909912109375,-4.1046142578125,-0.12969970703125,-0.0623779296875,-0.32568359375,0.020751953125,11,0,241
2,24,3,29889,252,0.19561767578125,-0.97125244140625,-0.16900634765625,3.83758544921875,-4.364013671875,-1.8157958984375,-0.5501708984375,0.41064453125,0.3106689453125,11,0,205
2,24,1,29890,252,-0.256591796875,0.9107666015625,-0.272216796875,3.73077392578125,-4.24957275390625,-0.05340576171875,-0.0638427734375,-0.333251953125,0.015869140625,11,0,34
2,24,2,29891,252,0.01409912109375,-0.9547119140625,-0.2747802734375,4.2266845703125,-6.55364990234375,-2.96783447265625,0.499267578125,-0.4996337890625,-0.070556640625,11,0,235
2,24,3,29896,253,0.19561767578125,-0.97125244140625,-0.16900634765625,3.83758544921875,-4.364013671875,-1.8157958984375,-0.5501708984375,0.41064453125,0.3106689453125,11,0,154
2,24,1,29897,253,-0.256591796875,0.9107666015625,-0.272216796875,3.73077392578125,-4.24957275390625,-0.05340576171875,-0.0638427734375,-0.333251953125,0.015869140625,11,0,6
2,24,2,29898,253,0.01409912109375,-0.9547119140625,-0.2747802734375,4.2266845703125,-6.55364990234375,-2.96783447265625,0.494140625,-0.500244140625,-0.0677490234375,11,0,76
2,24,3,29901,254,0.19561767578125,-0.97125244140625,-0.16900634765625,3.83758544921875,-4.364013671875,-1.8157958984375,-0.5501708984375,0.41064453125,0.3106689453125,11,0,172
2,24,2,29903,254,0.01409912109375,-0.9547119140625,-0.2747802734375,4.2266845703125,-6.55364990234375,-2.96783447265625,0.494140625,-0.500244140625,-0.0677490234375,11,0,122
2,24,3,29905,254,0.19561767578125,-0.97125244140625,-0.16900634765625,3.83758544921875,-4.364013671875,-1.8157958984375,-0.5501708984375,0.41064453125,0.3106689453125,11,0,16
2,24,1,29906,254,-0.256591796875,0.9107666015625,-0.272216796875,3.73077392578125,-4.24957275390625,-0.05340576171875,-0.0638427734375,-0.333251953125,0.015869140625,11,0,255
2,24,1,29910,255,-0.256591796875,0.9107666015625,-0.272216796875,3.73077392578125,-4.24957275390625,-0.05340576171875,-0.0577392578125,-0.3338623046875,0.013671875,11,0,219
2,24,2,29912,255,0.01409912109375,-0.9547119140625,-0.2747802734375,4.2266845703125,-6.55364990234375,-2.96783447265625,0.494140625,-0.500244140625,-0.0677490234375,11,0,226
2,24,3,29914,255,0.19561767578125,-0.97125244140625,-0.16900634765625,3.83758544921875,-4.364013671875,-1.8157958984375,-0.5504150390625,0.4051513671875,0.306396484375,11,0,56
2,24,3,29919,256,0.19561767578125,-0.97125244140625,-0.16900634765625,3.83758544921875,-4.364013671875,-1.8157958984375,-0.5504150390625,0.4051513671875,0.306396484375,11,0,108
2,24,1,29920,256,-0.256591796875,0.9107666015625,-0.272216796875,3.73077392578125,-4.24957275390625,-0.05340576171875,-0.0577392578125,-0.3338623046875,0.013671875,11,0,242
2,24,2,29921,256,0.01409912109375,-0.9547119140625,-0.2747802734375,4.2266845703125,-6.55364990234375,-2.96783447265625,0.49853515625,-0.502685546875,-0.0762939453125,11,0,87
2,24,3,29924,257,0.19561767578125,-0.97125244140625,-0.16900634765625,3.83758544921875,-4.364013671875,-1.8157958984375,-0.5513916015625,0.4307861328125,0.3074951171875,11,0,130
2,24,2,29925,257,0.01409912109375,-0.9547119140625,-0.2747802734375,4.2266845703125,-6.55364990234375,-2.96783447265625,0.49853515625,-0.502685546875,-0.0762939453125,11,0,151
2,24,1,29931,257,-0.256591796875,0.9107666015625,-0.272216796875,3.73077392578125,-4.24957275390625,-0.05340576171875,-0.064208984375,-0.3245849609375,0.014404296875,11,0,190
2,24,2,29940,258,0.01409912109375,-0.9547119140625,-0.2747802734375,4.2266845703125,-6.55364990234375,-2.96783447265625,0.497802734375,-0.499267578125,-0.0751953125,11,0,18
2,24,3,29941,258,0.19561767578125,-0.97125244140625,-0.16900634765625,3.83758544921875,-4.364013671875,-1.8157958984375,-0.5513916015625,0.4307861328125,0.3074951171875,11,0,195
2,24,1,29942,258,-0.256591796875,0.9107666015625,-0.272216796875,3.73077392578125,-4.24957275390625,-0.05340576171875,-0.064208984375,-0.3245849609375,0.014404296875,11,0,210
2,24,3,29946,259,0.1943359375,-0.972412109375,-0.1663818359375,3.83758544921875,-4.364013671875,-2.2125244140625,-0.5511474609375,0.43017578125,0.308349609375,11,0,242
2,24,2,29947,259,0.01409912109375,-0.9547119140625,-0.2747802734375,4.2266845703125,-6.55364990234375,-2.96783447265625,0.497802734375,-0.499267578125,-0.0751953125,11,0,208
2,24,1,29948,259,-0.256591796875,0.9107666015625,-0.272216796875,3.73077392578125,-4.24957275390625,-0.05340576171875,-0.0631103515625,-0.3126220703125,0.0009765625,11,0,46
2,24,3,29952,260,0.1943359375,-0.972412109375,-0.1663818359375,3.83758544921875,-4.364013671875,-2.2125244140625,-0.5511474609375,0.43017578125,0.308349609375,11,0,236
2,24,2,29953,260,0.01409912109375,-0.9547119140625,-0.2747802734375,4.2266845703125,-6.55364990234375,-2.96783447265625,0.497802734375,-0.5013427734375,-0.0736083984375,11,0,223
2,24,1,29954,260,-0.256591796875,0.9107666015625,-0.272216796875,3.73077392578125,-4.24957275390625,-0.05340576171875,-0.0631103515625,-0.3126220703125,0.0009765625,11,0,214
2,24,3,29958,261,0.1943359375,-0.972412109375,-0.1663818359375,3.83758544921875,-4.364013671875,-2.2125244140625,-0.5511474609375,0.43017578125,0.308349609375,11,0,95
2,24,1,29959,261,-0.256591796875,0.9107666015625,-0.272216796875,3.73077392578125,-4.24957275390625,-0.05340576171875,-0.0631103515625,-0.3126220703125,0.0009765625,11,0,172
2,24,2,29964,261,0.01409912109375,-0.9547119140625,-0.2747802734375,4.2266845703125,-6.55364990234375,-2.96783447265625,0.497802734375,-0.5013427734375,-0.0736083984375,11,0,110
2,24,3,29969,262,0.1943359375,-0.972412109375,-0.1663818359375,3.92913818359375,-4.44793701171875,-2.2125244140625,-0.552734375,0.4071044921875,0.306884765625,11,0,108
2,24,1,29970,262,-0.256591796875,0.9107666015625,-0.272216796875,3.73077392578125,-4.24957275390625,-0.05340576171875,-0.0634765625,-0.316650390625,0.0133056640625,11,0,55
2,24,2,29971,262,0.01690673828125,-0.95452880859375,-0.27508544921875,4.33349609375,-6.38580322265625,-3.07464599609375,0.490966796875,-0.4998779296875,-0.0770263671875,11,0,28
2,24,3,29974,263,0.1943359375,-0.972412109375,-0.1663818359375,3.92913818359375,-4.44793701171875,-2.2125244140625,-0.552734375,0.4071044921875,0.306884765625,11,0,101
2,24,2,29975,263,0.01690673828125,-0.95452880859375,-0.27508544921875,4.33349609375,-6.38580322265625,-3.07464599609375,0.490966796875,-0.4998779296875,-0.0770263671875,11,0,220
2,24,1,29976,263,-0.256591796875,0.9107666015625,-0.272216796875,3.73077392578125,-4.24957275390625,-0.05340576171875,-0.0634765625,-0.316650390625,0.0133056640625,11,0,169
2,24,3,29982,264,0.1943359375,-0.972412109375,-0.1663818359375,3.92913818359375,-4.44793701171875,-2.2125244140625,-0.5511474609375,0.4295654296875,0.3013916015625,11,0,250
2,24,2,29985,264,0.01690673828125,-0.95452880859375,-0.27508544921875,4.33349609375,-6.38580322265625,-3.07464599609375,0.5,-0.500732421875,-0.075927734375,11,0,122
2,24,1,29988,264,-0.26947021484375,0.9095458984375,-0.27117919921875,3.54766845703125,-5.401611328125,-0.48828125,-0.0645751953125,-0.311767578125,0.011962890625,11,0,64
2,24,3,29991,265,0.1943359375,-0.972412109375,-0.1663818359375,3.92913818359375,-4.44793701171875,-2.2125244140625,-0.5511474609375,0.4295654296875,0.3013916015625,11,0,25
2,24,2,29993,265,0.01690673828125,-0.95452880859375,-0.27508544921875,4.33349609375,-6.38580322265625,-3.07464599609375,0.5,-0.500732421875,-0.075927734375,11,0,151
2,24,1,29994,265,-0.26947021484375,0.9095458984375,-0.27117919921875,3.54766845703125,-5.401611328125,-0.48828125,-0.0645751953125,-0.311767578125,0.011962890625,11,0,56
2,24,1,29997,266,-0.26947021484375,0.9095458984375,-0.27117919921875,3.54766845703125,-5.401611328125,-0.48828125,-0.06298828125,-0.310791015625,0.019775390625,11,0,154
2,24,2,29998,266,0.01690673828125,-0.95452880859375,-0.27508544921875,4.33349609375,-6.38580322265625,-3.07464599609375,0.5,-0.500732421875,-0.075927734375,11,0,210
2,24,3,30000,266,0.1943359375,-0.972412109375,-0.1663818359375,3.92913818359375,-4.44793701171875,-2.2125244140625,-0.551513671875,0.4285888671875,0.3050537109375,11,0,218
2,24,3,30004,267,0.1943359375,-0.972412109375,-0.1663818359375,3.92913818359375,-4.44793701171875,-2.2125244140625,-0.551513671875,0.4285888671875,0.3050537109375,11,0,26
2,24,2,30005,267,0.01690673828125,-0.95452880859375,-0.27508544921875,4.33349609375,-6.38580322265625,-3.07464599609375,0.4913330078125,-0.500732421875,-0.077392578125,11,0,31
2,24,1,30006,267,-0.26947021484375,0.9095458984375,-0.27117919921875,3.54766845703125,-5.401611328125,-0.48828125,-0.06298828125,-0.310791015625,0.019775390625,11,0,47
2,24,2,30009,268,0.01690673828125,-0.95452880859375,-0.27508544921875,4.33349609375,-6.38580322265625,-3.07464599609375,0.4913330078125,-0.500732421875,-0.077392578125,11,0,192
2,24,3,30011,268,0.1943359375,-0.972412109375,-0.1663818359375,3.92913818359375,-4.44793701171875,-2.2125244140625,-0.551513671875,0.4285888671875,0.3050537109375,11,0,12
2,24,1,30012,268,-0.26947021484375,0.9095458984375,-0.27117919921875,3.54766845703125,-5.401611328125,-0.48828125,-0.06298828125,-0.310791015625,0.019775390625,11,0,101
2,24,2,30016,269,0.01690673828125,-0.95452880859375,-0.27508544921875,4.33349609375,-6.38580322265625,-3.07464599609375,0.4913330078125,-0.500732421875,-0.077392578125,11,0,105
2,24,3,30017,269,0.1943359375,-0.972412109375,-0.1663818359375,3.92913818359375,-4.44793701171875,-2.2125244140625,-0.552001953125,0.42919921875,0.3072509765625,11,0,159
2,24,1,30018,269,-0.26947021484375,0.9095458984375,-0.27117919921875,3.54766845703125,-5.401611328125,-0.48828125,-0.064208984375,-0.3284912109375,0.0208740234375,11,0,185
2,24,2,30022,270,0.01690673828125,-0.95452880859375,-0.27508544921875,4.33349609375,-6.38580322265625,-3.07464599609375,0.48779296875,-0.4970703125,-0.07666015625,11,0,202
2,24,3,30024,270,0.1943359375,-0.972412109375,-0.1663818359375,3.92913818359375,-4.44793701171875,-2.2125244140625,-0.552001953125,0.42919921875,0.3072509765625,11,0,132
2,24,1,30025,270,-0.26947021484375,0.9095458984375,-0.27117919921875,3.54766845703125,-5.401611328125,-0.48828125,-0.064208984375,-0.3284912109375,0.0208740234375,11,0,209
2,24,3,30028,271,0.19171142578125,-0.97247314453125,-0.16522216796875,4.08172607421875,-4.52423095703125,-2.5482177734375,-0.5538330078125,0.4315185546875,0.30712890625,11,0,193
2,24,2,30029,271,0.01690673828125,-0.95452880859375,-0.27508544921875,4.33349609375,-6.38580322265625,-3.07464599609375,0.48779296875,-0.4970703125,-0.07666015625,11,0,238
2,24,1,30033,271,-0.26947021484375,0.9095458984375,-0.27117919921875,3.54766845703125,-5.401611328125,-0.48828125,-0.064208984375,-0.3284912109375,0.0208740234375,11,0,173
2,24,2,30037,272,0.01690673828125,-0.9576416015625,-0.2786865234375,4.24957275390625,-6.21795654296875,-2.99835205078125,0.4976806640625,-0.50146484375,-0.0821533203125,11,0,208
2,24,1,30039,272,-0.26947021484375,0.9095458984375,-0.27117919921875,3.54766845703125,-5.401611328125,-0.48828125,-0.0640869140625,-0.312744140625,0.0115966796875,11,0,76
2,24,3,30040,272,0.19171142578125,-0.97247314453125,-0.16522216796875,4.08172607421875,-4.52423095703125,-2.5482177734375,-0.5538330078125,0.4315185546875,0.30712890625,11,0,29
2,24,3,30043,273,0.19171142578125,-0.97247314453125,-0.16522216796875,4.08172607421875,-4.52423095703125,-2.5482177734375,-0.5538330078125,0.4315185546875,0.30712890625,11,0,242
2,24,2,30044,273,0.01690673828125,-0.9576416015625,-0.2786865234375,4.24957275390625,-6.21795654296875,-2.99835205078125,0.4976806640625,-0.50146484375,-0.0821533203125,11,0,135
2,24,1,30048,273,-0.26947021484375,0.9095458984375,-0.27117919921875,3.54766845703125,-5.401611328125,-0.48828125,-0.0640869140625,-0.312744140625,0.0115966796875,11,0,241
2,24,2,30053,274,0.01690673828125,-0.9576416015625,-0.2786865234375,4.24957275390625,-6.21795654296875,-2.99835205078125,0.487548828125,-0.502197265625,-0.076416015625,11,0,140
2,24,1,30054,274,-0.2635498046875,0.9112548828125,-0.273193359375,2.69317626953125,-5.4168701171875,-1.15966796875,-0.0623779296875,-0.3140869140625,0.0057373046875,11,0,145
2,24,2,30055,274,0.01690673828125,-0.9576416015625,-0.2786865234375,4.24957275390625,-6.21795654296875,-2.99835205078125,0.487548828125,-0.502197265625,-0.076416015625,11,0,255
2,24,3,30056,274,0.19171142578125,-0.97247314453125,-0.16522216796875,4.08172607421875,-4.52423095703125,-2.5482177734375,-0.5509033203125,0.42822265625,0.31103515625,11,0,99
2,24,3,30062,275,0.19171142578125,-0.97247314453125,-0.16522216796875,4.08172607421875,-4.52423095703125,-2.5482177734375,-0.5509033203125,0.42822265625,0.31103515625,11,0,208
2,24,2,30064,275,0.01690673828125,-0.9576416015625,-0.2786865234375,4.24957275390625,-6.21795654296875,-2.99835205078125,0.487548828125,-0.502197265625,-0.076416015625,11,0,103
2,24,1,30065,275,-0.2635498046875,0.9112548828125,-0.273193359375,2.69317626953125,-5.4168701171875,-1.15966796875,-0.0623779296875,-0.3140869140625,0.0057373046875,11,0,9
2,24,3,30070,276,0.19171142578125,-0.97247314453125,-0.16522216796875,4.08172607421875,-4.52423095703125,-2.5482177734375,-0.5562744140625,0.430419921875,0.31005859375,11,0,72
2,24,1,30071,276,-0.2635498046875,0.9112548828125,-0.273193359375,2.69317626953125,-5.4168701171875,-1.15966796875,-0.0594482421875,-0.330322265625,0.0179443359375,11,0,1
2,24,2,30072,276,0.01690673828125,-0.9576416015625,-0.2786865234375,4.24957275390625,-6.21795654296875,-2.99835205078125,0.4923095703125,-0.5040283203125,-0.0787353515625,11,0,217
2,24,1,30076,277,-0.2635498046875,0.9112548828125,-0.273193359375,2.69317626953125,-5.4168701171875,-1.15966796875,-0.0594482421875,-0.330322265625,0.0179443359375,11,0,37
2,24,2,30077,277,0.01690673828125,-0.9576416015625,-0.2786865234375,4.24957275390625,-6.21795654296875,-2.99835205078125,0.4923095703125,-0.5040283203125,-0.0787353515625,11,0,163
2,24,3,30078,277,0.19171142578125,-0.97247314453125,-0.16522216796875,4.08172607421875,-4.52423095703125,-2.5482177734375,-0.5562744140625,0.430419921875,0.31005859375,11,0,165
2,24,2,30083,278,0.01690673828125,-0.9576416015625,-0.2786865234375,4.24957275390625,-6.21795654296875,-2.99835205078125,0.4923095703125,-0.5040283203125,-0.0787353515625,11,0,253
2,24,3,30084,278,0.19171142578125,-0.97247314453125,-0.16522216796875,4.08172607421875,-4.52423095703125,-2.5482177734375,-0.5491943359375,0.4324951171875,0.31201171875,11,0,212
2,24,1,30085,278,-0.2635498046875,0.9112548828125,-0.273193359375,2.69317626953125,-5.4168701171875,-1.15966796875,-0.0615234375,-0.31396484375,0.0179443359375,11,0,31
2,24,1,30089,279,-0.2635498046875,0.9112548828125,-0.273193359375,2.69317626953125,-5.4168701171875,-1.15966796875,-0.0615234375,-0.31396484375,0.0179443359375,11,0,20
2,24,2,30091,279,0.01690673828125,-0.9576416015625,-0.2786865234375,4.24957275390625,-6.21795654296875,-2.99835205078125,0.4971923828125,-0.50244140625,-0.085693359375,11,0,55
2,24,3,30092,279,0.19171142578125,-0.97247314453125,-0.16522216796875,4.08172607421875,-4.52423095703125,-2.5482177734375,-0.5491943359375,0.4324951171875,0.31201171875,11,0,57
2,24,2,30100,280,0.01690673828125,-0.9576416015625,-0.2786865234375,4.24957275390625,-6.21795654296875,-2.99835205078125,0.4949951171875,-0.5045166015625,-0.077392578125,11,0,164
2,24,1,30101,280,-0.2635498046875,0.9112548828125,-0.273193359375,2.69317626953125,-5.4168701171875,-1.15966796875,-0.0631103515625,-0.3314208984375,0.010498046875,11,0,187
2,24,3,30103,280,0.19171142578125,-0.97247314453125,-0.16522216796875,4.08172607421875,-4.52423095703125,-2.5482177734375,-0.5535888671875,0.4122314453125,0.30908203125,11,0,205
2,24,3,30106,281,0.19171142578125,-0.97247314453125,-0.16522216796875,4.08172607421875,-4.52423095703125,-2.5482177734375,-0.5535888671875,0.4122314453125,0.30908203125,11,0,124
2,24,2,30107,281,0.01690673828125,-0.9576416015625,-0.2786865234375,4.24957275390625,-6.21795654296875,-2.99835205078125,0.4949951171875,-0.5045166015625,-0.077392578125,11,0,102
2,24,1,30108,281,-0.2635498046875,0.9112548828125,-0.273193359375,2.69317626953125,-5.4168701171875,-1.15966796875,-0.0631103515625,-0.3314208984375,0.010498046875,11,0,236
2,24,3,30112,282,0.19171142578125,-0.97247314453125,-0.16522216796875,4.08172607421875,-4.52423095703125,-2.5482177734375,-0.5535888671875,0.4122314453125,0.30908203125,11,0,26
2,24,2,30113,282,0.01690673828125,-0.9576416015625,-0.2786865234375,4.24957275390625,-6.21795654296875,-2.99835205078125,0.4949951171875,-0.5045166015625,-0.077392578125,11,0,0
2,24,1,30115,282,-0.2635498046875,0.9112548828125,-0.273193359375,2.69317626953125,-5.4168701171875,-1.15966796875,-0.0631103515625,-0.3314208984375,0.010498046875,11,0,214
2,24,2,30118,283,0.01031494140625,-0.95111083984375,-0.27947998046875,3.94439697265625,-6.3629150390625,-2.655029296875,0.498046875,-0.5015869140625,-0.0721435546875,11,0,11
2,24,3,30119,283,0.19635009765625,-0.9744873046875,-0.16217041015625,4.72259521484375,-4.87518310546875,-3.570556640625,-0.5518798828125,0.43017578125,0.2977294921875,11,0,93
2,24,1,30121,283,-0.2635498046875,0.9093017578125,-0.266845703125,2.69317626953125,-5.4168701171875,-1.15966796875,-0.0654296875,-0.3153076171875,0.009521484375,11,0,167
2,24,1,30126,284,-0.2635498046875,0.9093017578125,-0.266845703125,2.69317626953125,-5.4168701171875,-1.15966796875,-0.0654296875,-0.3153076171875,0.009521484375,11,0,122
2,24,3,30127,284,0.19635009765625,-0.9744873046875,-0.16217041015625,4.72259521484375,-4.87518310546875,-3.570556640625,-0.5518798828125,0.43017578125,0.2977294921875,11,0,100
2,24,2,30128,284,0.01031494140625,-0.95111083984375,-0.27947998046875,3.94439697265625,-6.3629150390625,-2.655029296875,0.498046875,-0.5015869140625,-0.0721435546875,11,0,253
2,24,2,30131,285,0.01031494140625,-0.95111083984375,-0.27947998046875,3.94439697265625,-6.3629150390625,-2.655029296875,0.498046875,-0.5015869140625,-0.0721435546875,11,0,18
2,24,3,30132,285,0.19635009765625,-0.9744873046875,-0.16217041015625,4.72259521484375,-4.87518310546875,-3.570556640625,-0.5518798828125,0.43017578125,0.2977294921875,11,0,209
2,24,1,30133,285,-0.2635498046875,0.9093017578125,-0.266845703125,2.69317626953125,-5.4168701171875,-1.15966796875,-0.0654296875,-0.3153076171875,0.009521484375,11,0,207
2,24,3,30137,286,0.19635009765625,-0.9744873046875,-0.16217041015625,4.72259521484375,-4.87518310546875,-3.570556640625,-0.5526123046875,0.4283447265625,0.294921875,11,0,221
2,24,1,30138,286,-0.261474609375,0.9093017578125,-0.266845703125,2.31170654296875,-4.33349609375,-1.33514404296875,-0.0614013671875,-0.3135986328125,0.01025390625,11,0,58
2,24,2,30139,286,0.01031494140625,-0.95111083984375,-0.27947998046875,3.94439697265625,-6.3629150390625,-2.655029296875,0.5001220703125,-0.50244140625,-0.072998046875,11,0,83
2,24,2,30143,287,0.01031494140625,-0.95111083984375,-0.27947998046875,3.94439697265625,-6.3629150390625,-2.655029296875,0.5001220703125,-0.50244140625,-0.072998046875,11,0,147
2,24,1,30144,287,-0.261474609375,0.9093017578125,-0.266845703125,2.31170654296875,-4.33349609375,-1.33514404296875,-0.0614013671875,-0.3135986328125,0.01025390625,11,0,90
2,24,3,30145,287,0.19635009765625,-0.9744873046875,-0.16217041015625,4.72259521484375,-4.87518310546875,-3.570556640625,-0.5526123046875,0.4283447265625,0.294921875,11,0,206
2,24,2,30151,288,0.01031494140625,-0.95111083984375,-0.27947998046875,3.94439697265625,-6.3629150390625,-2.655029296875,0.4996337890625,-0.503173828125,-0.069580078125,11,0,181
2,24,3,30155,288,0.19635009765625,-0.9744873046875,-0.16217041015625,4.72259521484375,-4.87518310546875,-3.570556640625,-0.553955078125,0.431396484375,0.2979736328125,11,0,13
2,24,1,30156,288,-0.261474609375,0.9093017578125,-0.266845703125,2.31170654296875,-4.33349609375,-1.33514404296875,-0.0614013671875,-0.3135986328125,0.01025390625,11,0,0
2,24,1,30160,289,-0.261474609375,0.9093017578125,-0.266845703125,2.31170654296875,-4.33349609375,-1.33514404296875,-0.0623779296875,-0.314453125,0.0062255859375,11,0,234
2,24,2,30161,289,0.01031494140625,-0.95111083984375,-0.27947998046875,3.94439697265625,-6.3629150390625,-2.655029296875,0.4996337890625,-0.503173828125,-0.069580078125,11,0,151
2,24,3,30162,289,0.19635009765625,-0.9744873046875,-0.16217041015625,4.72259521484375,-4.87518310546875,-3.570556640625,-0.553955078125,0.431396484375,0.2979736328125,11,0,203
2,24,2,30166,290,0.01031494140625,-0.95111083984375,-0.27947998046875,3.94439697265625,-6.3629150390625,-2.655029296875,0.4947509765625,-0.506103515625,-0.0775146484375,11,0,241
2,24,3,30167,290,0.19635009765625,-0.9744873046875,-0.16217041015625,4.72259521484375,-4.87518310546875,-3.570556640625,-0.552001953125,0.412109375,0.30810546875,11,0,254
2,24,1,30168,290,-0.261474609375,0.9093017578125,-0.266845703125,2.31170654296875,-4.33349609375,-1.33514404296875,-0.0623779296875,-0.314453125,0.0062255859375,11,0,75
2,24,1,30176,291,-0.261474609375,0.9093017578125,-0.266845703125,2.31170654296875,-4.33349609375,-1.33514404296875,-0.0634765625,-0.32177734375,0.01123046875,11,0,144
2,24,3,30177,291,0.19635009765625,-0.9744873046875,-0.16217041015625,4.72259521484375,-4.87518310546875,-3.570556640625,-0.552001953125,0.412109375,0.30810546875,11,0,249
2,24,2,30178,291,0.01031494140625,-0.95111083984375,-0.27947998046875,3.94439697265625,-6.3629150390625,-2.655029296875,0.4947509765625,-0.506103515625,-0.0775146484375,11,0,133
2,24,3,30183,292,0.20025634765625,-0.97125244140625,-0.1590576171875,4.55474853515625,-4.67681884765625,-3.997802734375,-0.5513916015625,0.4136962890625,0.304931640625,11,0,188
2,24,1,30184,292,-0.261474609375,0.9093017578125,-0.266845703125,2.31170654296875,-4.33349609375,-1.33514404296875,-0.0634765625,-0.32177734375,0.01123046875,11,0,169
2,24,2,30185,292,0.01031494140625,-0.95111083984375,-0.27947998046875,3.94439697265625,-6.3629150390625,-2.655029296875,0.497314453125,-0.501953125,-0.07568359375,11,0,160
2,24,3,30188,293,0.20025634765625,-0.97125244140625,-0.1590576171875,4.55474853515625,-4.67681884765625,-3.997802734375,-0.5513916015625,0.4136962890625,0.304931640625,11,0,152
2,24,2,30189,293,0.01031494140625,-0.95111083984375,-0.27947998046875,3.94439697265625,-6.3629150390625,-2.655029296875,0.497314453125,-0.501953125,-0.07568359375,11,0,96
2,24,1,30190,293,-0.261474609375,0.9093017578125,-0.266845703125,2.31170654296875,-4.33349609375,-1.33514404296875,-0.0654296875,-0.3175048828125,0.008544921875,11,0,224
2,24,3,30194,294,0.20025634765625,-0.97125244140625,-0.1590576171875,4.55474853515625,-4.67681884765625,-3.997802734375,-0.5513916015625,0.4136962890625,0.304931640625,11,0,61
2,24,1,30195,294,-0.261474609375,0.9093017578125,-0.266845703125,2.31170654296875,-4.33349609375,-1.33514404296875,-0.0654296875,-0.3175048828125,0.008544921875,11,0,140
2,24,2,30196,294,0.01031494140625,-0.95111083984375,-0.27947998046875,3.94439697265625,-6.3629150390625,-2.655029296875,0.497314453125,-0.501953125,-0.07568359375,11,0,234
2,24,1,30199,295,-0.261474609375,0.9093017578125,-0.266845703125,2.31170654296875,-4.33349609375,-1.33514404296875,-0.0654296875,-0.3175048828125,0.008544921875,11,0,76
2,24,3,30200,295,0.20025634765625,-0.97125244140625,-0.1590576171875,4.55474853515625,-4.67681884765625,-3.997802734375,-0.553466796875,0.430419921875,0.2962646484375,11,0,178
2,24,2,30201,295,0.01031494140625,-0.95111083984375,-0.27947998046875,3.94439697265625,-6.3629150390625,-2.655029296875,0.497314453125,-0.501953125,-0.07568359375,11,0,91
2,24,3,30205,296,0.20025634765625,-0.97125244140625,-0.1590576171875,4.55474853515625,-4.67681884765625,-3.997802734375,-0.553466796875,0.430419921875,0.2962646484375,11,0,43
2,24,2,30207,296,0.0205078125,-0.954833984375,-0.28045654296875,4.02069091796875,-6.77490234375,-3.1280517578125,0.4984130859375,-0.5001220703125,-0.075927734375,11,0,192
2,24,1,30208,296,-0.27734375,0.90692138671875,-0.274658203125,3.2958984375,-3.90625,-0.29754638671875,-0.058349609375,-0.3172607421875,0.000732421875,11,0,184
2,24,1,30212,297,-0.27734375,0.90692138671875,-0.274658203125,3.2958984375,-3.90625,-0.29754638671875,-0.058349609375,-0.3172607421875,0.000732421875,11,0,120
2,24,3,30213,297,0.20025634765625,-0.97125244140625,-0.1590576171875,4.55474853515625,-4.67681884765625,-3.997802734375,-0.553466796875,0.430419921875,0.2962646484375,11,0,238
2,24,2,30214,297,0.0205078125,-0.954833984375,-0.28045654296875,4.02069091796875,-6.77490234375,-3.1280517578125,0.4984130859375,-0.5001220703125,-0.075927734375,11,0,191
2,24,2,30218,298,0.0205078125,-0.954833984375,-0.28045654296875,4.02069091796875,-6.77490234375,-3.1280517578125,0.49951171875,-0.5032958984375,-0.0721435546875,11,0,110
2,24,3,30219,298,0.20025634765625,-0.97125244140625,-0.1590576171875,4.55474853515625,-4.67681884765625,-3.997802734375,-0.550537109375,0.410400390625,0.3055419921875,11,0,89
2,24,1,30221,298,-0.27734375,0.90692138671875,-0.274658203125,3.2958984375,-3.90625,-0.29754638671875,-0.058349609375,-0.3172607421875,0.000732421875,11,0,99
2,24,3,30224,299,0.20025634765625,-0.97125244140625,-0.1590576171875,4.55474853515625,-4.67681884765625,-3.997802734375,-0.550537109375,0.410400390625,0.3055419921875,11,0,236
2,24,2,30225,299,0.0205078125,-0.954833984375,-0.28045654296875,4.02069091796875,-6.77490234375,-3.1280517578125,0.49951171875,-0.5032958984375,-0.0721435546875,11,0,219
2,24,1,30226,299,-0.27734375,0.90692138671875,-0.274658203125,3.2958984375,-3.90625,-0.29754638671875,-0.063720703125,-0.3194580078125,0.006103515625,11,0,152
2,24,3,30230,300,0.20025634765625,-0.97125244140625,-0.1590576171875,4.55474853515625,-4.67681884765625,-3.997802734375,-0.550537109375,0.410400390625,0.3055419921875,11,0,139
2,24,1,30231,300,-0.27734375,0.90692138671875,-0.274658203125,3.2958984375,-3.90625,-0.29754638671875,-0.063720703125,-0.3194580078125,0.006103515625,11,0,54
2,24,2,30237,300,0.0205078125,-0.954833984375,-0.28045654296875,4.02069091796875,-6.77490234375,-3.1280517578125,0.49951171875,-0.5032958984375,-0.0721435546875,11,0,4
2,24,2,30240,301,0.0205078125,-0.954833984375,-0.28045654296875,4.02069091796875,-6.77490234375,-3.1280517578125,0.5010986328125,-0.5006103515625,-0.0762939453125,11,0,4
2,24,1,30241,301,-0.27734375,0.90692138671875,-0.274658203125,3.2958984375,-3.90625,-0.29754638671875,-0.0653076171875,-0.3170166015625,0.003173828125,11,0,236
2,24,3,30242,301,0.20025634765625,-0.97125244140625,-0.1590576171875,4.55474853515625,-4.67681884765625,-3.997802734375,-0.5511474609375,0.4283447265625,0.3028564453125,11,0,172
2,24,3,30247,302,0.20025634765625,-0.97125244140625,-0.1590576171875,4.55474853515625,-4.67681884765625,-3.997802734375,-0.5511474609375,0.4283447265625,0.3028564453125,11,0,154
2,24,1,30248,302,-0.27734375,0.90692138671875,-0.274658203125,3.2958984375,-3.90625,-0.29754638671875,-0.0653076171875,-0.3170166015625,0.003173828125,11,0,247
2,24,2,30249,302,0.0205078125,-0.954833984375,-0.28045654296875,4.02069091796875,-6.77490234375,-3.1280517578125,0.5010986328125,-0.5006103515625,-0.0762939453125,11,0,31
2,24,3,30254,303,0.20025634765625,-0.97125244140625,-0.1590576171875,4.55474853515625,-4.67681884765625,-3.997802734375,-0.5511474609375,0.4263916015625,0.3101806640625,11,0,71
2,24,2,30255,303,0.0205078125,-0.954833984375,-0.28045654296875,4.02069091796875,-6.77490234375,-3.1280517578125,0.5003662109375,-0.498779296875,-0.083740234375,11,0,53
2,24,1,30257,303,-0.27734375,0.90692138671875,-0.274658203125,3.2958984375,-3.90625,-0.29754638671875,-0.0653076171875,-0.3170166015625,0.003173828125,11,0,49
2,24,3,30260,304,0.20025634765625,-0.97125244140625,-0.1590576171875,4.55474853515625,-4.67681884765625,-3.997802734375,-0.5511474609375,0.4263916015625,0.3101806640625,11,0,197
2,24,2,30261,304,0.0205078125,-0.954833984375,-0.28045654296875,4.02069091796875,-6.77490234375,-3.1280517578125,0.5003662109375,-0.498779296875,-0.083740234375,11,0,183
2,24,1,30264,304,-0.27734375,0.90692138671875,-0.274658203125,3.2958984375,-3.90625,-0.29754638671875,-0.063232421875,-0.3192138671875,0.0098876953125,11,0,52
2,24,3,30267,305,0.20025634765625,-0.97125244140625,-0.1590576171875,4.55474853515625,-4.67681884765625,-3.997802734375,-0.5511474609375,0.4263916015625,0.3101806640625,11,0,7
2,24,1,30268,305,-0.27734375,0.90692138671875,-0.274658203125,3.2958984375,-3.90625,-0.29754638671875,-0.063232421875,-0.3192138671875,0.0098876953125,11,0,244
2,24,2,30269,305,0.0205078125,-0.954833984375,-0.28045654296875,4.02069091796875,-6.77490234375,-3.1280517578125,0.495361328125,-0.4986572265625,-0.078125,11,0,103
2,24,3,30272,306,0.20172119140625,-0.970458984375,-0.1600341796875,4.47845458984375,-4.79888916015625,-4.0740966796875,-0.552978515625,0.422607421875,0.305419921875,11,0,126
2,24,1,30273,306,-0.27734375,0.90692138671875,-0.274658203125,3.2958984375,-3.90625,-0.29754638671875,-0.063232421875,-0.3192138671875,0.0098876953125,11,0,247
2,24,2,30274,306,0.0205078125,-0.954833984375,-0.28045654296875,4.02069091796875,-6.77490234375,-3.1280517578125,0.495361328125,-0.4986572265625,-0.078125,11,0,23
2,24,3,30279,307,0.20172119140625,-0.970458984375,-0.1600341796875,4.47845458984375,-4.79888916015625,-4.0740966796875,-0.552978515625,0.422607421875,0.305419921875,11,0,119
2,24,1,30280,307,-0.25006103515625,0.9185791015625,-0.27471923828125,3.47900390625,-6.622314453125,1.3427734375,-0.0625,-0.316162109375,0.00634765625,11,0,208
2,24,2,30282,307,0.0205078125,-0.954833984375,-0.28045654296875,4.02069091796875,-6.77490234375,-3.1280517578125,0.495361328125,-0.4986572265625,-0.078125,11,0,250
2,24,1,30288,308,-0.25006103515625,0.9185791015625,-0.27471923828125,3.47900390625,-6.622314453125,1.3427734375,-0.0625,-0.316162109375,0.00634765625,11,0,120
2,24,2,30289,308,0.0120849609375,-0.956298828125,-0.28106689453125,4.5623779296875,-6.38580322265625,-2.18963623046875,0.4969482421875,-0.49951171875,-0.077880859375,11,0,88
2,24,3,30290,308,0.20172119140625,-0.970458984375,-0.1600341796875,4.47845458984375,-4.79888916015625,-4.0740966796875,-0.550537109375,0.428955078125,0.3057861328125,11,0,110
2,24,2,30293,309,0.0120849609375,-0.956298828125,-0.28106689453125,4.5623779296875,-6.38580322265625,-2.18963623046875,0.4969482421875,-0.49951171875,-0.077880859375,11,0,152
2,24,3,30294,309,0.20172119140625,-0.970458984375,-0.1600341796875,4.47845458984375,-4.79888916015625,-4.0740966796875,-0.550537109375,0.428955078125,0.3057861328125,11,0,174
2,24,1,30296,309,-0.25006103515625,0.9185791015625,-0.27471923828125,3.47900390625,-6.622314453125,1.3427734375,-0.06640625,-0.3287353515625,0.0101318359375,11,0,221
2,24,1,30300,310,-0.25006103515625,0.9185791015625,-0.27471923828125,3.47900390625,-6.622314453125,1.3427734375,-0.06640625,-0.3287353515625,0.0101318359375,11,0,81
2,24,2,30301,310,0.0120849609375,-0.956298828125,-0.28106689453125,4.5623779296875,-6.38580322265625,-2.18963623046875,0.496826171875,-0.5013427734375,-0.08251953125,11,0,55
2,24,3,30306,310,0.20172119140625,-0.970458984375,-0.1600341796875,4.47845458984375,-4.79888916015625,-4.0740966796875,-0.550537109375,0.428955078125,0.3057861328125,11,0,150
2,24,1,30310,311,-0.25006103515625,0.9185791015625,-0.27471923828125,3.47900390625,-6.622314453125,1.3427734375,-0.0621337890625,-0.3135986328125,-0.0013427734375,11,0,130
2,24,2,30311,311,0.0120849609375,-0.956298828125,-0.28106689453125,4.5623779296875,-6.38580322265625,-2.18963623046875,0.496826171875,-0.5013427734375,-0.08251953125,11,0,29
2,24,3,30312,311,0.20172119140625,-0.970458984375,-0.1600341796875,4.47845458984375,-4.79888916015625,-4.0740966796875,-0.550048828125,0.4232177734375,0.29345703125,11,0,201
2,24,2,30315,312,0.0120849609375,-0.956298828125,-0.28106689453125,4.5623779296875,-6.38580322265625,-2.18963623046875,0.496826171875,-0.5013427734375,-0.08251953125,11,0,245
2,24,3,30316,312,0.20172119140625,-0.970458984375,-0.1600341796875,4.47845458984375,-4.79888916015625,-4.0740966796875,-0.550048828125,0.4232177734375,0.29345703125,11,0,234
2,24,1,30317,311,-0.25006103515625,0.9185791015625,-0.27471923828125,3.47900390625,-6.622314453125,1.3427734375,-0.0621337890625,-0.3135986328125,-0.0013427734375,11,0,128
2,24,3,30368,313,0.1971435546875,-0.97515869140625,-0.1529541015625,3.65447998046875,-3.5552978515625,-2.38037109375,-0.55224609375,0.4254150390625,0.3038330078125,11,0,152
2,24,1,30370,313,-0.2410888671875,0.9197998046875,-0.26104736328125,3.0517578125,-6.87408447265625,0.274658203125,-0.0638427734375,-0.3133544921875,0.0152587890625,11,0,104
2,24,2,30372,313,0.00531005859375,-0.95111083984375,-0.27880859375,4.5623779296875,-6.38580322265625,-2.18963623046875,0.4996337890625,-0.497802734375,-0.0745849609375,11,0,56
2,24,1,30375,314,-0.2410888671875,0.9197998046875,-0.26104736328125,3.0517578125,-6.87408447265625,0.274658203125,-0.0638427734375,-0.3133544921875,0.0152587890625,11,0,94
2,24,3,30376,314,0.1971435546875,-0.97515869140625,-0.1529541015625,3.65447998046875,-3.5552978515625,-2.38037109375,-0.5560302734375,0.4295654296875,0.3056640625,11,0,213
2,24,2,30377,314,0.00531005859375,-0.95111083984375,-0.27880859375,4.43267822265625,-6.3323974609375,-1.800537109375,0.5008544921875,-0.5010986328125,-0.0704345703125,11,0,252
2,24,2,30382,315,0.00531005859375,-0.95111083984375,-0.27880859375,4.43267822265625,-6.3323974609375,-1.800537109375,0.5008544921875,-0.5010986328125,-0.0704345703125,11,0,245
2,24,1,30383,315,-0.2410888671875,0.9197998046875,-0.26104736328125,3.0517578125,-6.87408447265625,0.274658203125,-0.063720703125,-0.31689453125,0.005126953125,11,0,174
2,24,3,30389,315,0.1971435546875,-0.97515869140625,-0.1529541015625,3.65447998046875,-3.5552978515625,-2.38037109375,-0.5560302734375,0.4295654296875,0.3056640625,11,0,245
2,24,3,30393,316,0.1971435546875,-0.97515869140625,-0.1529541015625,3.65447998046875,-3.5552978515625,-2.38037109375,-0.5509033203125,0.4290771484375,0.297119140625,11,0,133
2,24,2,30394,316,0.00531005859375,-0.95111083984375,-0.27880859375,4.43267822265625,-6.3323974609375,-1.800537109375,0.49072265625,-0.496337890625,-0.0799560546875,11,0,34
2,24,1,30395,316,-0.2410888671875,0.9197998046875,-0.26104736328125,3.0517578125,-6.87408447265625,0.274658203125,-0.063720703125,-0.31689453125,0.005126953125,11,0,43
2,24,1,30399,317,-0.2410888671875,0.9197998046875,-0.26104736328125,3.0517578125,-6.87408447265625,0.274658203125,-0.0618896484375,-0.319580078125,0.006103515625,11,0,214
2,24,2,30400,317,0.00531005859375,-0.95111083984375,-0.27880859375,4.43267822265625,-6.3323974609375,-1.800537109375,0.49072265625,-0.496337890625,-0.0799560546875,11,0,66
2,24,3,30401,317,0.1971435546875,-0.97515869140625,-0.1529541015625,3.65447998046875,-3.5552978515625,-2.38037109375,-0.5509033203125,0.4290771484375,0.297119140625,11,0,150
2,24,1,30405,318,-0.2410888671875,0.9197998046875,-0.26104736328125,3.0517578125,-6.87408447265625,0.274658203125,-0.0618896484375,-0.319580078125,0.006103515625,11,0,250
2,24,3,30406,318,0.1971435546875,-0.97515869140625,-0.1529541015625,3.65447998046875,-3.5552978515625,-2.38037109375,-0.5509033203125,0.4290771484375,0.297119140625,11,0,211
2,24,2,30407,318,0.00531005859375,-0.95111083984375,-0.27880859375,4.43267822265625,-6.3323974609375,-1.800537109375,0.4981689453125,-0.4969482421875,-0.0693359375,11,0,101
2,24,1,30413,319,-0.2410888671875,0.9197998046875,-0.26104736328125,3.0517578125,-6.87408447265625,0.274658203125,-0.0618896484375,-0.319580078125,0.006103515625,11,0,23
2,24,2,30414,319,0.00531005859375,-0.95111083984375,-0.27880859375,4.43267822265625,-6.3323974609375,-1.800537109375,0.4981689453125,-0.4969482421875,-0.0693359375,11,0,50
2,24,3,30415,319,0.1971435546875,-0.97515869140625,-0.1529541015625,3.65447998046875,-3.5552978515625,-2.38037109375,-0.5550537109375,0.41162109375,0.3062744140625,11,0,244
2,24,3,30418,320,0.1971435546875,-0.97515869140625,-0.1529541015625,3.65447998046875,-3.5552978515625,-2.38037109375,-0.5550537109375,0.41162109375,0.3062744140625,11,0,58
2,24,2,30419,320,0.00531005859375,-0.95111083984375,-0.27880859375,4.43267822265625,-6.3323974609375,-1.800537109375,0.4981689453125,-0.4969482421875,-0.0693359375,11,0,252
2,24,1,30420,320,-0.2410888671875,0.9197998046875,-0.26104736328125,3.0517578125,-6.87408447265625,0.274658203125,-0.0609130859375,-0.3157958984375,0.0133056640625,11,0,201
2,24,3,30426,321,0.17791748046875,-0.96905517578125,-0.16046142578125,3.97491455078125,-4.6844482421875,-3.13568115234375,-0.5504150390625,0.4083251953125,0.2972412109375,11,0,60
2,24,2,30427,321,0.00531005859375,-0.95111083984375,-0.27880859375,4.43267822265625,-6.3323974609375,-1.800537109375,0.4930419921875,-0.5042724609375,-0.0743408203125,11,0,128
2,24,1,30428,321,-0.2410888671875,0.9197998046875,-0.26104736328125,3.0517578125,-6.87408447265625,0.274658203125,-0.0609130859375,-0.3157958984375,0.0133056640625,11,0,36
2,24,2,30432,322,0.00531005859375,-0.95111083984375,-0.27880859375,4.43267822265625,-6.3323974609375,-1.800537109375,0.4930419921875,-0.5042724609375,-0.0743408203125,11,0,92
2,24,3,30433,322,0.17791748046875,-0.96905517578125,-0.16046142578125,3.97491455078125,-4.6844482421875,-3.13568115234375,-0.5504150390625,0.4083251953125,0.2972412109375,11,0,224
2,24,1,30435,322,-0.2410888671875,0.9197998046875,-0.26104736328125,3.0517578125,-6.87408447265625,0.274658203125,-0.0609130859375,-0.3157958984375,0.0133056640625,11,0,30
2,24,3,30439,323,0.17791748046875,-0.96905517578125,-0.16046142578125,3.97491455078125,-4.6844482421875,-3.13568115234375,-0.5504150390625,0.4083251953125,0.2972412109375,11,0,83
2,24,1,30441,323,-0.25018310546875,0.91644287109375,-0.25860595703125,2.78472900390625,-5.53131103515625,-1.46484375,-0.0611572265625,-0.3314208984375,0.0108642578125,11,0,188
2,24,2,30442,323,0.00531005859375,-0.95111083984375,-0.27880859375,4.43267822265625,-6.3323974609375,-1.800537109375,0.4930419921875,-0.5042724609375,-0.0743408203125,11,0,194
2,24,2,30446,324,0.00604248046875,-0.95050048828125,-0.28021240234375,4.55474853515625,-6.4544677734375,-2.8076171875,0.49072265625,-0.5001220703125,-0.0736083984375,11,0,249
2,24,3,30447,324,0.17791748046875,-0.96905517578125,-0.16046142578125,3.97491455078125,-4.6844482421875,-3.13568115234375,-0.553466796875,0.429931640625,0.297119140625,11,0,230
2,24,1,30449,324,-0.25018310546875,0.91644287109375,-0.25860595703125,2.78472900390625,-5.53131103515625,-1.46484375,-0.0611572265625,-0.3314208984375,0.0108642578125,11,0,20
2,24,3,30452,325,0.17791748046875,-0.96905517578125,-0.16046142578125,3.97491455078125,-4.6844482421875,-3.13568115234375,-0.553466796875,0.429931640625,0.297119140625,11,0,83
2,24,2,30453,325,0.00604248046875,-0.95050048828125,-0.28021240234375,4.55474853515625,-6.4544677734375,-2.8076171875,0.49072265625,-0.5001220703125,-0.0736083984375,11,0,76
2,24,1,30454,325,-0.25018310546875,0.91644287109375,-0.25860595703125,2.78472900390625,-5.53131103515625,-1.46484375,-0.0623779296875,-0.3143310546875,0.0035400390625,11,0,182
2,24,1,30459,326,-0.25018310546875,0.91644287109375,-0.25860595703125,2.78472900390625,-5.53131103515625,-1.46484375,-0.0623779296875,-0.3143310546875,0.0035400390625,11,0,75
2,24,2,30460,326,0.00604248046875,-0.95050048828125,-0.28021240234375,4.55474853515625,-6.4544677734375,-2.8076171875,0.485107421875,-0.5001220703125,-0.07861328125,11,0,67
2,24,3,30461,326,0.17791748046875,-0.96905517578125,-0.16046142578125,3.97491455078125,-4.6844482421875,-3.13568115234375,-0.553466796875,0.429931640625,0.297119140625,11,0,72
2,24,1,30464,327,-0.25018310546875,0.91644287109375,-0.25860595703125,2.78472900390625,-5.53131103515625,-1.46484375,-0.0623779296875,-0.3143310546875,0.0035400390625,11,0,59
2,24,2,30465,327,0.00604248046875,-0.95050048828125,-0.28021240234375,4.55474853515625,-6.4544677734375,-2.8076171875,0.485107421875,-0.5001220703125,-0.07861328125,11,0,166
2,24,3,30466,327,0.17791748046875,-0.96905517578125,-0.16046142578125,3.97491455078125,-4.6844482421875,-3.13568115234375,-0.5504150390625,0.43017578125,0.2958984375,11,0,82
2,24,2,30471,328,0.00604248046875,-0.95050048828125,-0.28021240234375,4.55474853515625,-6.4544677734375,-2.8076171875,0.485107421875,-0.5001220703125,-0.07861328125,11,0,246
2,24,3,30472,328,0.17791748046875,-0.96905517578125,-0.16046142578125,3.97491455078125,-4.6844482421875,-3.13568115234375,-0.5504150390625,0.43017578125,0.2958984375,11,0,47
2,24,1,30473,328,-0.25018310546875,0.91644287109375,-0.25860595703125,2.78472900390625,-5.53131103515625,-1.46484375,-0.09326171875,-0.324462890625,0.0084228515625,11,0,39
2,24,3,30477,329,0.17791748046875,-0.96905517578125,-0.16046142578125,3.97491455078125,-4.6844482421875,-3.13568115234375,-0.552978515625,0.42431640625,0.301025390625,11,0,69
2,24,2,30478,329,0.00604248046875,-0.95050048828125,-0.28021240234375,4.55474853515625,-6.4544677734375,-2.8076171875,0.49609375,-0.5001220703125,-0.0770263671875,11,0,52
2,24,1,30480,329,-0.25018310546875,0.91644287109375,-0.25860595703125,2.78472900390625,-5.53131103515625,-1.46484375,-0.09326171875,-0.324462890625,0.0084228515625,11,0,225
2,24,3,30484,330,0.17791748046875,-0.96905517578125,-0.16046142578125,3.97491455078125,-4.6844482421875,-3.13568115234375,-0.552978515625,0.42431640625,0.301025390625,11,0,207
2,24,1,30485,330,-0.25018310546875,0.91644287109375,-0.25860595703125,2.78472900390625,-5.53131103515625,-1.46484375,-0.09326171875,-0.324462890625,0.0084228515625,11,0,215
2,24,2,30486,330,0.00604248046875,-0.95050048828125,-0.28021240234375,4.55474853515625,-6.4544677734375,-2.8076171875,0.49609375,-0.5001220703125,-0.0770263671875,11,0,4
2,24,1,30489,331,-0.25018310546875,0.91644287109375,-0.25860595703125,2.78472900390625,-5.53131103515625,-1.46484375,-0.0631103515625,-0.3157958984375,0.0047607421875,11,0,153
2,24,2,30490,331,0.00604248046875,-0.95050048828125,-0.28021240234375,4.55474853515625,-6.4544677734375,-2.8076171875,0.49609375,-0.5001220703125,-0.0770263671875,11,0,15
2,24,3,30491,331,0.17791748046875,-0.96905517578125,-0.16046142578125,3.97491455078125,-4.6844482421875,-3.13568115234375,-0.552978515625,0.42431640625,0.301025390625,11,0,13
2,24,2,30495,332,0.00604248046875,-0.95050048828125,-0.28021240234375,4.55474853515625,-6.4544677734375,-2.8076171875,0.491943359375,-0.5035400390625,-0.07470703125,11,0,228
2,24,3,30496,332,0.20281982421875,-0.974365234375,-0.1585693359375,3.80706787109375,-5.51605224609375,-3.31878662109375,-0.550537109375,0.4285888671875,0.295654296875,11,0,135
2,24,1,30497,332,-0.25018310546875,0.91644287109375,-0.25860595703125,2.78472900390625,-5.53131103515625,-1.46484375,-0.0631103515625,-0.3157958984375,0.0047607421875,11,0,20
2,24,2,30499,332,0.00604248046875,-0.95050048828125,-0.28021240234375,4.55474853515625,-6.4544677734375,-2.8076171875,0.491943359375,-0.5035400390625,-0.07470703125,11,0,125
2,24,1,30501,332,-0.25018310546875,0.91644287109375,-0.25860595703125,2.78472900390625,-5.53131103515625,-1.46484375,-0.0631103515625,-0.3157958984375,0.0047607421875,11,0,242
2,24,3,30502,333,0.20281982421875,-0.974365234375,-0.1585693359375,3.80706787109375,-5.51605224609375,-3.31878662109375,-0.550537109375,0.4285888671875,0.295654296875,11,0,52
2,24,2,30503,333,0.00604248046875,-0.95050048828125,-0.28021240234375,4.55474853515625,-6.4544677734375,-2.8076171875,0.491943359375,-0.5035400390625,-0.07470703125,11,0,189
2,24,2,30555,334,0.01434326171875,-0.95452880859375,-0.27655029296875,4.4097900390625,-6.96563720703125,-4.5318603515625,0.50244140625,-0.49853515625,-0.0716552734375,11,0,135
2,24,3,30556,334,0.20281982421875,-0.974365234375,-0.1585693359375,3.80706787109375,-5.51605224609375,-3.31878662109375,-0.5543212890625,0.429443359375,0.30029296875,11,0,251
2,24,1,30557,334,-0.27276611328125,0.90716552734375,-0.26568603515625,1.79290771484375,-2.7618408203125,-2.1209716796875,-0.06005859375,-0.3109130859375,0.0147705078125,11,0,77
2,24,3,30561,335,0.20281982421875,-0.974365234375,-0.1585693359375,3.80706787109375,-5.51605224609375,-3.31878662109375,-0.5543212890625,0.429443359375,0.30029296875,11,0,254
2,24,2,30562,335,0.01434326171875,-0.95452880859375,-0.27655029296875,4.4097900390625,-6.96563720703125,-4.5318603515625,0.50244140625,-0.49853515625,-0.0716552734375,11,0,100
2,24,1,30566,335,-0.27276611328125,0.90716552734375,-0.26568603515625,1.79290771484375,-2.7618408203125,-2.1209716796875,-0.058837890625,-0.3426513671875,0.011474609375,11,0,205
2,24,1,30570,336,-0.27276611328125,0.90716552734375,-0.26568603515625,1.79290771484375,-2.7618408203125,-2.1209716796875,-0.058837890625,-0.3426513671875,0.011474609375,11,0,75
2,24,3,30571,336,0.20281982421875,-0.974365234375,-0.1585693359375,3.80706787109375,-5.51605224609375,-3.31878662109375,-0.552490234375,0.426513671875,0.30712890625,11,0,51
2,24,2,30572,336,0.01434326171875,-0.95452880859375,-0.27655029296875,4.4097900390625,-6.96563720703125,-4.5318603515625,0.503173828125,-0.5,-0.0714111328125,11,0,164
2,24,3,30576,337,0.20281982421875,-0.974365234375,-0.1585693359375,3.80706787109375,-5.51605224609375,-3.31878662109375,-0.552490234375,0.426513671875,0.30712890625,11,0,134
2,24,2,30577,337,0.01434326171875,-0.95452880859375,-0.27655029296875,4.4097900390625,-6.96563720703125,-4.5318603515625,0.503173828125,-0.5,-0.0714111328125,11,0,132
2,24,1,30578,337,-0.27276611328125,0.90716552734375,-0.26568603515625,1.79290771484375,-2.7618408203125,-2.1209716796875,-0.060546875,-0.315185546875,0.01416015625,11,0,77
2,24,2,30582,338,0.01434326171875,-0.95452880859375,-0.27655029296875,4.4097900390625,-6.96563720703125,-4.5318603515625,0.4979248046875,-0.4990234375,-0.0751953125,11,0,221
2,24,3,30583,338,0.201171875,-0.97412109375,-0.15777587890625,3.54766845703125,-5.22613525390625,-3.1890869140625,-0.5504150390625,0.4232177734375,0.295166015625,11,0,224
2,24,1,30584,338,-0.27276611328125,0.90716552734375,-0.26568603515625,1.79290771484375,-2.7618408203125,-2.1209716796875,-0.060546875,-0.315185546875,0.01416015625,11,0,159
2,24,3,30589,339,0.201171875,-0.97412109375,-0.15777587890625,3.54766845703125,-5.22613525390625,-3.1890869140625,-0.5504150390625,0.4232177734375,0.295166015625,11,0,126
2,24,2,30590,339,0.01434326171875,-0.95452880859375,-0.27655029296875,4.4097900390625,-6.96563720703125,-4.5318603515625,0.4979248046875,-0.4990234375,-0.0751953125,11,0,48
2,24,1,30591,339,-0.27276611328125,0.90716552734375,-0.26568603515625,1.79290771484375,-2.7618408203125,-2.1209716796875,-0.060546875,-0.315185546875,0.01416015625,11,0,150
2,24,2,30595,340,0.01434326171875,-0.95452880859375,-0.27655029296875,4.4097900390625,-6.96563720703125,-4.5318603515625,0.4979248046875,-0.4990234375,-0.0751953125,11,0,63
2,24,3,30596,340,0.201171875,-0.97412109375,-0.15777587890625,3.54766845703125,-5.22613525390625,-3.1890869140625,-0.5504150390625,0.4232177734375,0.295166015625,11,0,151
2,24,1,30597,340,-0.2860107421875,0.92645263671875,-0.28192138671875,0.40435791015625,-1.07574462890625,-0.91552734375,-0.0592041015625,-0.3409423828125,0.0135498046875,11,0,150
2,24,1,30604,341,-0.2860107421875,0.92645263671875,-0.28192138671875,0.40435791015625,-1.07574462890625,-0.91552734375,-0.0592041015625,-0.3409423828125,0.0135498046875,11,0,193
2,24,3,30605,341,0.201171875,-0.97412109375,-0.15777587890625,3.54766845703125,-5.22613525390625,-3.1890869140625,-0.5504150390625,0.4072265625,0.3040771484375,11,0,91
2,24,2,30607,341,0.02337646484375,-0.95697021484375,-0.28204345703125,4.0130615234375,-7.1258544921875,-4.69970703125,0.50048828125,-0.501220703125,-0.08154296875,11,0,73
2,24,3,30612,342,0.201171875,-0.97412109375,-0.15777587890625,3.54766845703125,-5.22613525390625,-3.1890869140625,-0.5504150390625,0.4072265625,0.3040771484375,11,0,209
2,24,2,30613,342,0.02337646484375,-0.95697021484375,-0.28204345703125,4.0130615234375,-7.1258544921875,-4.69970703125,0.50048828125,-0.501220703125,-0.08154296875,11,0,10
2,24,1,30614,342,-0.2860107421875,0.92645263671875,-0.28192138671875,0.40435791015625,-1.07574462890625,-0.91552734375,-0.0623779296875,-0.3321533203125,0.0048828125,11,0,203
2,24,1,30617,343,-0.2860107421875,0.92645263671875,-0.28192138671875,0.40435791015625,-1.07574462890625,-0.91552734375,-0.0623779296875,-0.3321533203125,0.0048828125,11,0,9
2,24,3,30618,343,0.201171875,-0.97412109375,-0.15777587890625,3.54766845703125,-5.22613525390625,-3.1890869140625,-0.54833984375,0.4310302734375,0.2906494140625,11,0,113
2,24,2,30620,343,0.02337646484375,-0.95697021484375,-0.28204345703125,4.0130615234375,-7.1258544921875,-4.69970703125,0.4990234375,-0.4990234375,-0.079345703125,11,0,86
2,24,2,30631,344,0.02337646484375,-0.95697021484375,-0.28204345703125,4.0130615234375,-7.1258544921875,-4.69970703125,0.4935302734375,-0.500244140625,-0.0875244140625,11,0,87
2,24,3,30632,344,0.201171875,-0.97412109375,-0.15777587890625,3.54766845703125,-5.22613525390625,-3.1890869140625,-0.54833984375,0.4310302734375,0.2906494140625,11,0,115
2,24,1,30633,344,-0.2860107421875,0.92645263671875,-0.28192138671875,0.40435791015625,-1.07574462890625,-0.91552734375,-0.0614013671875,-0.3223876953125,0.0054931640625,11,0,145
2,24,3,30637,345,0.201171875,-0.97412109375,-0.15777587890625,3.54766845703125,-5.22613525390625,-3.1890869140625,-0.551513671875,0.429931640625,0.3057861328125,11,0,154
2,24,1,30638,345,-0.2860107421875,0.92645263671875,-0.28192138671875,0.40435791015625,-1.07574462890625,-0.91552734375,-0.0614013671875,-0.3223876953125,0.0054931640625,11,0,152
2,24,2,30640,345,0.02337646484375,-0.95697021484375,-0.28204345703125,4.0130615234375,-7.1258544921875,-4.69970703125,0.4935302734375,-0.500244140625,-0.0875244140625,11,0,207
2,24,2,30647,346,0.02337646484375,-0.95697021484375,-0.28204345703125,4.0130615234375,-7.1258544921875,-4.69970703125,0.4935302734375,-0.500244140625,-0.0875244140625,11,0,138
2,24,3,30648,346,0.201171875,-0.97412109375,-0.15777587890625,3.54766845703125,-5.22613525390625,-3.1890869140625,-0.551513671875,0.429931640625,0.3057861328125,11,0,61
2,24,1,30649,346,-0.2860107421875,0.92645263671875,-0.28192138671875,0.40435791015625,-1.07574462890625,-0.91552734375,-0.0648193359375,-0.3167724609375,0.01220703125,11,0,215
2,24,2,30652,347,0.02337646484375,-0.95697021484375,-0.28204345703125,4.0130615234375,-7.1258544921875,-4.69970703125,0.5006103515625,-0.4979248046875,-0.079833984375,11,0,171
2,24,1,30653,347,-0.2860107421875,0.92645263671875,-0.28192138671875,0.40435791015625,-1.07574462890625,-0.91552734375,-0.0648193359375,-0.3167724609375,0.01220703125,11,0,23
2,24,3,30655,347,0.196044921875,-0.9776611328125,-0.15362548828125,3.2806396484375,-3.9825439453125,-2.6702880859375,-0.54833984375,0.42236328125,0.30322265625,11,0,118
2,24,1,30662,348,-0.2860107421875,0.92645263671875,-0.28192138671875,0.40435791015625,-1.07574462890625,-0.91552734375,-0.0648193359375,-0.3167724609375,0.01220703125,11,0,25
2,24,2,30664,348,0.02337646484375,-0.95697021484375,-0.28204345703125,4.0130615234375,-7.1258544921875,-4.69970703125,0.5006103515625,-0.4979248046875,-0.079833984375,11,0,65
2,24,3,30665,348,0.196044921875,-0.9776611328125,-0.15362548828125,3.2806396484375,-3.9825439453125,-2.6702880859375,-0.54833984375,0.42236328125,0.30322265625,11,0,239
