PacketType,PayloadLen,DeviceID,Timestamp,PacketID,AccelX,AccelY,AccelZ,GyroX,GyroY,GyroZ,MagX,MagY,MagZ,Flags,Battery,CRC
2,24,1,25529,1,-0.25,0.92230224609375,-0.25201416015625,0.80108642578125,-4.93621826171875,0.63323974609375,-0.064697265625,-0.3111572265625,0.017578125,11,0,65
2,24,3,25530,1,0.17291259765625,-0.98309326171875,-0.12664794921875,4.34112548828125,-4.974365234375,-3.814697265625,-0.5325927734375,0.4398193359375,0.2923583984375,11,0,202
2,24,3,25577,2,0.173095703125,-0.98388671875,-0.115234375,3.95965576171875,-4.05120849609375,-3.08990478515625,-0.5333251953125,0.4381103515625,0.288330078125,11,0,111
2,24,1,25578,2,-0.240478515625,0.9124755859375,-0.24615478515625,0.7476806640625,-5.48553466796875,-0.152587890625,-0.069091796875,-0.313232421875,0.0191650390625,11,0,66
2,24,1,25631,3,-0.24017333984375,0.91302490234375,-0.24542236328125,2.01416015625,-6.89697265625,0.3509521484375,-0.0684814453125,-0.312744140625,0.0198974609375,11,0,174
2,24,3,25634,3,0.173095703125,-0.98388671875,-0.115234375,3.95965576171875,-4.05120849609375,-3.08990478515625,-0.535400390625,0.4410400390625,0.2918701171875,11,0,31
2,24,1,25687,4,-0.24017333984375,0.91302490234375,-0.24542236328125,2.01416015625,-6.89697265625,0.3509521484375,-0.0614013671875,-0.3133544921875,0.0213623046875,11,0,133
2,24,3,25688,4,0.17474365234375,-0.98004150390625,-0.11846923828125,3.4027099609375,-3.73077392578125,-3.0364990234375,-0.534912109375,0.4395751953125,0.2958984375,11,0,254
2,24,3,25734,5,0.1715087890625,-0.98382568359375,-0.11920166015625,2.76947021484375,-3.99017333984375,-2.09808349609375,-0.531982421875,0.4385986328125,0.2923583984375,11,0,248
2,24,1,25735,5,-0.23980712890625,0.92364501953125,-0.24969482421875,3.143310546875,-6.64520263671875,0.64849853515625,-0.068603515625,-0.31103515625,0.0167236328125,11,0,200
2,24,1,25786,6,-0.23980712890625,0.92364501953125,-0.24969482421875,3.143310546875,-6.64520263671875,0.64849853515625,-0.0667724609375,-0.3123779296875,0.0177001953125,11,0,150
2,24,3,25787,6,0.1715087890625,-0.98382568359375,-0.11920166015625,2.76947021484375,-3.99017333984375,-2.09808349609375,-0.5321044921875,0.43896484375,0.2921142578125,11,0,37
2,24,3,25838,7,0.17059326171875,-0.98492431640625,-0.12451171875,2.471923828125,-4.8828125,-1.861572265625,-0.5294189453125,0.4383544921875,0.29248046875,11,0,101
2,24,1,25839,7,-0.2454833984375,0.92034912109375,-0.25177001953125,3.47137451171875,-5.8135986328125,-0.22125244140625,-0.0640869140625,-0.3072509765625,0.0194091796875,11,0,109
2,24,3,25893,8,0.16888427734375,-0.9822998046875,-0.11492919921875,2.4261474609375,-5.0201416015625,-1.79290771484375,-0.5299072265625,0.4393310546875,0.2938232421875,11,0,24
2,24,1,25894,8,-0.24212646484375,0.925537109375,-0.25213623046875,3.18145751953125,-4.93621826171875,-0.87738037109375,-0.068603515625,-0.3050537109375,0.0164794921875,11,0,109
2,24,1,25943,9,-0.24212646484375,0.925537109375,-0.25213623046875,3.18145751953125,-4.93621826171875,-0.87738037109375,-0.06787109375,-0.3079833984375,0.02197265625,11,0,196
2,24,3,25944,9,0.16888427734375,-0.9822998046875,-0.11492919921875,2.4261474609375,-5.0201416015625,-1.79290771484375,-0.528564453125,0.439697265625,0.295654296875,11,0,138
2,24,3,25995,10,0.16705322265625,-0.983154296875,-0.12945556640625,0.98419189453125,-4.55474853515625,-0.75531005859375,-0.5313720703125,0.43798828125,0.296142578125,11,0,7
2,24,1,25996,10,-0.24835205078125,0.9185791015625,-0.25543212890625,2.64739990234375,-4.8065185546875,-0.95367431640625,-0.066650390625,-0.3082275390625,0.0142822265625,11,0,14
2,24,3,26052,11,0.156005859375,-0.98687744140625,-0.14044189453125,0.49591064453125,-3.41033935546875,-0.3814697265625,-0.5299072265625,0.4375,0.295166015625,11,0,158
2,24,1,26054,11,-0.25762939453125,0.913330078125,-0.2509765625,2.67791748046875,-3.86810302734375,-2.06756591796875,-0.0665283203125,-0.3082275390625,0.0196533203125,11,0,27
2,24,3,26100,12,0.156005859375,-0.98687744140625,-0.14044189453125,0.49591064453125,-3.41033935546875,-0.3814697265625,-0.5318603515625,0.407958984375,0.2918701171875,11,0,162
2,24,1,26105,12,-0.26116943359375,0.91363525390625,-0.2510986328125,2.02178955078125,-1.7242431640625,-3.3111572265625,-0.064208984375,-0.306884765625,0.0206298828125,11,0,156
2,24,3,26153,13,0.16241455078125,-0.98406982421875,-0.1353759765625,1.48773193359375,-4.4403076171875,-1.64031982421875,-0.530029296875,0.433837890625,0.2908935546875,11,0,155
2,24,1,26154,13,-0.26116943359375,0.91363525390625,-0.2510986328125,2.02178955078125,-1.7242431640625,-3.3111572265625,-0.0634765625,-0.308837890625,0.017578125,11,0,106
2,24,1,26204,14,-0.2703857421875,0.90997314453125,-0.25604248046875,1.8768310546875,-0.67138671875,-3.2196044921875,-0.0643310546875,-0.3052978515625,0.0147705078125,11,0,231
2,24,3,26205,14,0.15887451171875,-0.98486328125,-0.13787841796875,1.434326171875,-5.2490234375,-2.5787353515625,-0.526611328125,0.433349609375,0.2947998046875,11,0,201
2,24,3,26257,15,0.15789794921875,-0.9815673828125,-0.14666748046875,1.434326171875,-5.9356689453125,-3.01361083984375,-0.5283203125,0.434326171875,0.2916259765625,11,0,202
2,24,1,26258,15,-0.27117919921875,0.91259765625,-0.25146484375,2.6092529296875,-0.823974609375,-2.7008056640625,-0.0611572265625,-0.3016357421875,0.0213623046875,11,0,100
2,24,3,26315,16,0.15789794921875,-0.9815673828125,-0.14666748046875,1.5106201171875,-5.9356689453125,-3.01361083984375,-0.5286865234375,0.440673828125,0.2923583984375,11,0,226
2,24,1,26316,16,-0.27117919921875,0.91259765625,-0.25146484375,2.6092529296875,-0.823974609375,-2.7008056640625,-0.0635986328125,-0.30712890625,0.0211181640625,11,0,176
2,24,1,26361,17,-0.279052734375,0.91217041015625,-0.25579833984375,2.98309326171875,-0.93841552734375,-2.3040771484375,-0.061279296875,-0.3065185546875,0.021728515625,11,0,58
2,24,3,26363,17,0.15777587890625,-0.98309326171875,-0.1444091796875,2.46429443359375,-5.74493408203125,-2.90679931640625,-0.5260009765625,0.4366455078125,0.297607421875,11,0,6
2,24,1,26413,18,-0.279052734375,0.91217041015625,-0.25579833984375,2.98309326171875,-0.93841552734375,-2.3040771484375,-0.061767578125,-0.304931640625,0.0264892578125,11,0,92
2,24,3,26414,18,0.15777587890625,-0.98309326171875,-0.1444091796875,2.46429443359375,-5.74493408203125,-2.90679931640625,-0.5234375,0.4366455078125,0.296142578125,11,0,181
2,24,1,26470,19,-0.26910400390625,0.9149169921875,-0.258544921875,3.7384033203125,-2.3651123046875,-1.33514404296875,-0.06640625,-0.3017578125,0.021728515625,11,0,26
2,24,3,26473,19,0.16217041015625,-0.98388671875,-0.14239501953125,2.5482177734375,-5.34820556640625,-2.960205078125,-0.5279541015625,0.4376220703125,0.29931640625,11,0,36
2,24,1,26521,20,-0.27484130859375,0.91265869140625,-0.26239013671875,4.1351318359375,-3.3721923828125,-0.7171630859375,-0.063232421875,-0.302734375,0.01708984375,11,0,235
2,24,3,26522,20,0.15911865234375,-0.98284912109375,-0.14691162109375,1.96075439453125,-4.99725341796875,-2.28118896484375,-0.52685546875,0.43603515625,0.292724609375,11,0,40
2,24,1,26571,21,-0.2716064453125,0.91162109375,-0.26007080078125,4.08935546875,-3.8299560546875,-0.518798828125,-0.0625,-0.3074951171875,0.0225830078125,11,0,88
2,24,3,26576,21,0.15911865234375,-0.98284912109375,-0.14691162109375,1.96075439453125,-4.99725341796875,-2.28118896484375,-0.5274658203125,0.43359375,0.29248046875,11,0,30
2,24,1,26623,22,-0.2716064453125,0.91162109375,-0.26007080078125,4.08935546875,-3.8299560546875,-0.518798828125,-0.0631103515625,-0.3055419921875,0.022216796875,11,0,221
2,24,3,26624,22,0.1607666015625,-0.9830322265625,-0.1485595703125,2.0599365234375,-5.0811767578125,-2.12860107421875,-0.5216064453125,0.439453125,0.294921875,11,0,212
2,24,1,26676,23,-0.2685546875,0.91107177734375,-0.2640380859375,3.7384033203125,-4.241943359375,-0.5950927734375,-0.0628662109375,-0.3035888671875,0.0225830078125,11,0,31
2,24,3,26677,23,0.15576171875,-0.98394775390625,-0.151123046875,2.64739990234375,-5.035400390625,-2.28118896484375,-0.5311279296875,0.4344482421875,0.3021240234375,11,0,25
2,24,3,26729,24,0.15576171875,-0.98394775390625,-0.151123046875,2.64739990234375,-5.035400390625,-2.28118896484375,-0.5244140625,0.4375,0.291748046875,11,0,221
2,24,1,26730,24,-0.26885986328125,0.909423828125,-0.26531982421875,3.74603271484375,-4.31060791015625,-0.54168701171875,-0.0623779296875,-0.3033447265625,0.0216064453125,11,0,17
2,24,3,26780,25,0.15509033203125,-0.98260498046875,-0.14617919921875,2.90679931640625,-4.93621826171875,-2.47955322265625,-0.5267333984375,0.4373779296875,0.2958984375,11,0,62
2,24,1,26781,25,-0.26885986328125,0.909423828125,-0.26531982421875,3.74603271484375,-4.31060791015625,-0.54168701171875,-0.0606689453125,-0.3082275390625,0.0224609375,11,0,36
2,24,1,26834,26,-0.26678466796875,0.9102783203125,-0.26806640625,4.0283203125,-4.425048828125,-0.46539306640625,-0.065185546875,-0.3040771484375,0.02490234375,11,0,82
2,24,3,26835,26,0.158447265625,-0.982666015625,-0.14801025390625,2.9296875,-5.43975830078125,-2.960205078125,-0.5269775390625,0.43798828125,0.2994384765625,11,0,142
2,24,1,26836,26,-0.26678466796875,0.9102783203125,-0.26806640625,4.0283203125,-4.425048828125,-0.46539306640625,-0.065185546875,-0.3040771484375,0.02490234375,11,0,199
2,24,1,26886,27,-0.2696533203125,0.9083251953125,-0.270263671875,4.29534912109375,-4.73785400390625,-0.2899169921875,-0.061767578125,-0.305908203125,0.0244140625,11,0,158
2,24,3,26888,27,0.158447265625,-0.982666015625,-0.14801025390625,2.9296875,-5.43975830078125,-2.960205078125,-0.5238037109375,0.4365234375,0.294677734375,11,0,229
2,24,3,26938,28,0.16058349609375,-0.98138427734375,-0.14874267578125,2.593994140625,-5.22613525390625,-2.8076171875,-0.5247802734375,0.43408203125,0.29443359375,11,0,175
2,24,1,26939,28,-0.2696533203125,0.9083251953125,-0.270263671875,4.29534912109375,-4.73785400390625,-0.2899169921875,-0.062255859375,-0.3045654296875,0.029296875,11,0,22
2,24,1,26990,29,-0.2630615234375,0.91265869140625,-0.2703857421875,4.5623779296875,-5.37109375,-0.14495849609375,-0.060791015625,-0.30615234375,0.025146484375,11,0,135
2,24,3,26991,29,0.156982421875,-0.9818115234375,-0.15087890625,1.8768310546875,-4.94384765625,-2.3651123046875,-0.5208740234375,0.43798828125,0.2989501953125,11,0,12
2,24,1,27045,30,-0.2667236328125,0.910400390625,-0.27178955078125,4.57000732421875,-5.67626953125,-0.396728515625,-0.067626953125,-0.30517578125,0.0181884765625,11,0,237
2,24,3,27046,30,0.156982421875,-0.9818115234375,-0.15087890625,1.8768310546875,-4.94384765625,-2.3651123046875,-0.5263671875,0.4364013671875,0.299560546875,11,0,11
2,24,1,27095,31,-0.2667236328125,0.910400390625,-0.27178955078125,4.57000732421875,-5.67626953125,-0.396728515625,-0.06640625,-0.305908203125,0.0225830078125,11,0,78
2,24,3,27096,31,0.155517578125,-0.98114013671875,-0.1551513671875,1.5106201171875,-4.913330078125,-2.0599365234375,-0.5220947265625,0.4345703125,0.2921142578125,11,0,222
2,24,1,27148,32,-0.26519775390625,0.9114990234375,-0.27081298828125,4.3487548828125,-5.6610107421875,-0.66375732421875,-0.0626220703125,-0.3079833984375,0.025146484375,11,0,212
2,24,3,27149,32,0.155029296875,-0.97998046875,-0.1536865234375,1.495361328125,-4.7607421875,-2.03704833984375,-0.5235595703125,0.43310546875,0.301513671875,11,0,23
2,24,1,27201,33,-0.2696533203125,0.9075927734375,-0.27252197265625,3.997802734375,-4.974365234375,-1.220703125,-0.06396484375,-0.3035888671875,0.021484375,11,0,40
2,24,3,27202,33,0.155029296875,-0.97998046875,-0.1536865234375,1.495361328125,-4.7607421875,-2.03704833984375,-0.5263671875,0.4356689453125,0.300537109375,11,0,49
2,24,1,27253,34,-0.2696533203125,0.9075927734375,-0.27252197265625,3.997802734375,-4.974365234375,-1.220703125,-0.062744140625,-0.3037109375,0.0283203125,11,0,203
2,24,3,27258,34,0.1551513671875,-0.98223876953125,-0.15753173828125,1.800537109375,-4.90570068359375,-1.9989013671875,-0.5216064453125,0.4337158203125,0.3013916015625,11,0,58
2,24,3,27304,35,0.1512451171875,-0.9837646484375,-0.15985107421875,2.41851806640625,-5.05828857421875,-2.54058837890625,-0.521728515625,0.4305419921875,0.2984619140625,11,0,41
2,24,1,27305,35,-0.267578125,0.9078369140625,-0.2735595703125,3.753662109375,-4.4708251953125,-1.35040283203125,-0.0638427734375,-0.304443359375,0.026611328125,11,0,9
2,24,1,27358,36,-0.265380859375,0.90911865234375,-0.27630615234375,3.5858154296875,-4.57763671875,-0.84686279296875,-0.0635986328125,-0.306396484375,0.030029296875,11,0,130
2,24,3,27359,36,0.1512451171875,-0.9837646484375,-0.15985107421875,2.41851806640625,-5.05828857421875,-2.54058837890625,-0.52392578125,0.4326171875,0.30029296875,11,0,214
2,24,1,27409,37,-0.265380859375,0.90911865234375,-0.27630615234375,3.5858154296875,-4.57763671875,-0.84686279296875,-0.0606689453125,-0.3089599609375,0.0277099609375,11,0,230
2,24,3,27410,37,0.14959716796875,-0.98223876953125,-0.1607666015625,2.471923828125,-5.0201416015625,-2.99072265625,-0.5245361328125,0.4359130859375,0.300048828125,11,0,41
2,24,3,27464,38,0.151611328125,-0.9774169921875,-0.1639404296875,0.9307861328125,-4.5166015625,-2.18963623046875,-0.5206298828125,0.43310546875,0.3028564453125,11,0,187
2,24,1,27465,38,-0.27154541015625,0.90655517578125,-0.27679443359375,3.89862060546875,-4.39453125,-0.7476806640625,-0.0616455078125,-0.3050537109375,0.028564453125,11,0,176
2,24,1,27519,39,-0.27386474609375,0.9066162109375,-0.27789306640625,4.00543212890625,-3.88336181640625,-1.15203857421875,-0.0611572265625,-0.302734375,0.027587890625,11,0,253
2,24,3,27520,39,0.151611328125,-0.9774169921875,-0.1639404296875,0.9307861328125,-4.5166015625,-2.18963623046875,-0.5230712890625,0.4296875,0.2998046875,11,0,238
2,24,1,27569,40,-0.27386474609375,0.9066162109375,-0.27789306640625,4.00543212890625,-3.88336181640625,-1.15203857421875,-0.059814453125,-0.304443359375,0.0311279296875,11,0,29
2,24,3,27570,40,0.15179443359375,-0.98095703125,-0.1700439453125,0.54168701171875,-4.79888916015625,-1.9989013671875,-0.5211181640625,0.43212890625,0.3067626953125,11,0,209
2,24,1,27620,41,-0.28021240234375,0.9053955078125,-0.27642822265625,3.45611572265625,-3.5858154296875,-1.64031982421875,-0.0616455078125,-0.3074951171875,0.02978515625,11,0,24
2,24,3,27621,41,0.14892578125,-0.985107421875,-0.17144775390625,1.15966796875,-4.8675537109375,-2.0904541015625,-0.5216064453125,0.4327392578125,0.3023681640625,11,0,90
2,24,1,27671,42,-0.27978515625,0.90447998046875,-0.27764892578125,3.1280517578125,-3.753662109375,-1.89208984375,-0.058349609375,-0.3028564453125,0.02587890625,11,0,43
2,24,3,27672,42,0.14892578125,-0.985107421875,-0.17144775390625,1.15966796875,-4.8675537109375,-2.0904541015625,-0.52490234375,0.431884765625,0.308349609375,11,0,99
2,24,3,27725,43,0.1488037109375,-0.9788818359375,-0.17218017578125,1.65557861328125,-4.52423095703125,-1.85394287109375,-0.5218505859375,0.4302978515625,0.3082275390625,11,0,156
2,24,1,27726,43,-0.27978515625,0.90447998046875,-0.27764892578125,3.1280517578125,-3.753662109375,-1.89208984375,-0.064697265625,-0.302490234375,0.0252685546875,11,0,199
2,24,1,27777,44,-0.2801513671875,0.90252685546875,-0.274169921875,2.9449462890625,-3.84521484375,-1.80816650390625,-0.0625,-0.3021240234375,0.02099609375,11,0,166
2,24,3,27778,44,0.14691162109375,-0.9779052734375,-0.17388916015625,2.01416015625,-4.78363037109375,-1.96075439453125,-0.5224609375,0.427490234375,0.303955078125,11,0,216
2,24,3,27828,45,0.14691162109375,-0.978515625,-0.17291259765625,2.01416015625,-4.78363037109375,-1.96075439453125,-0.527099609375,0.4290771484375,0.2996826171875,11,0,147
2,24,1,27829,45,-0.2825927734375,0.90093994140625,-0.2783203125,2.960205078125,-4.03594970703125,-1.3580322265625,-0.06005859375,-0.2998046875,0.0308837890625,11,0,23
2,24,3,27885,46,0.14739990234375,-0.978515625,-0.17291259765625,2.57110595703125,-4.1656494140625,-2.1209716796875,-0.520751953125,0.4281005859375,0.3077392578125,11,0,244
2,24,1,27886,46,-0.2835693359375,0.90093994140625,-0.281005859375,3.42559814453125,-4.39453125,-1.0528564453125,-0.0645751953125,-0.300537109375,0.02490234375,11,0,70
2,24,3,27934,47,0.1473388671875,-0.9781494140625,-0.17572021484375,2.4871826171875,-4.57763671875,-2.2125244140625,-0.5225830078125,0.4295654296875,0.3046875,11,0,162
2,24,1,27937,47,-0.2835693359375,0.90093994140625,-0.281005859375,3.42559814453125,-4.39453125,-1.0528564453125,-0.0631103515625,-0.302490234375,0.02392578125,11,0,10
2,24,3,27987,48,0.1473388671875,-0.9781494140625,-0.17572021484375,2.4871826171875,-4.57763671875,-2.2125244140625,-0.5211181640625,0.42724609375,0.3084716796875,11,0,255
2,24,1,27990,48,-0.2833251953125,0.90093994140625,-0.277587890625,3.5858154296875,-4.547119140625,-0.72479248046875,-0.059814453125,-0.302734375,0.024658203125,11,0,35
2,24,1,28038,49,-0.2833251953125,0.90093994140625,-0.277587890625,3.5858154296875,-4.547119140625,-0.72479248046875,-0.060791015625,-0.3033447265625,0.022216796875,11,0,149
2,24,3,28039,49,0.142333984375,-0.97918701171875,-0.176513671875,2.6092529296875,-4.44793701171875,-2.02178955078125,-0.5220947265625,0.4288330078125,0.309814453125,11,0,152
2,24,1,28094,50,-0.283203125,0.90240478515625,-0.27996826171875,3.570556640625,-4.89044189453125,-0.40435791015625,-0.06005859375,-0.302978515625,0.02392578125,11,0,218
2,24,3,28097,50,0.14288330078125,-0.97723388671875,-0.17535400390625,2.8839111328125,-4.29534912109375,-2.00653076171875,-0.5224609375,0.430908203125,0.301025390625,11,0,94
2,24,1,28144,51,-0.28314208984375,0.90289306640625,-0.281494140625,2.960205078125,-4.87518310546875,-0.20599365234375,-0.063720703125,-0.30322265625,0.024658203125,11,0,215
2,24,3,28145,51,0.14288330078125,-0.97723388671875,-0.17535400390625,2.8839111328125,-4.29534912109375,-2.00653076171875,-0.5181884765625,0.43310546875,0.3099365234375,11,0,194
2,24,1,28198,52,-0.28314208984375,0.90289306640625,-0.281494140625,2.960205078125,-4.87518310546875,-0.20599365234375,-0.06201171875,-0.3057861328125,0.03076171875,11,0,253
2,24,3,28199,52,0.1435546875,-0.97894287109375,-0.172607421875,3.79180908203125,-3.68499755859375,-2.29644775390625,-0.52099609375,0.43212890625,0.305908203125,11,0,228
2,24,3,28250,53,0.14300537109375,-0.98016357421875,-0.17333984375,3.814697265625,-4.1656494140625,-2.57110595703125,-0.5184326171875,0.4320068359375,0.305908203125,11,0,65
2,24,1,28256,53,-0.28125,0.90411376953125,-0.27752685546875,2.3040771484375,-4.81414794921875,0.05340576171875,-0.06591796875,-0.3035888671875,0.0284423828125,11,0,227
2,24,3,28298,54,0.14300537109375,-0.98016357421875,-0.17333984375,3.814697265625,-4.1656494140625,-2.57110595703125,-0.5201416015625,0.434326171875,0.312255859375,11,0,194
2,24,1,28299,54,-0.2786865234375,0.9053955078125,-0.2803955078125,1.52587890625,-5.340576171875,0.45013427734375,-0.06591796875,-0.3055419921875,0.0245361328125,11,0,139
2,24,3,28357,55,0.1435546875,-0.97906494140625,-0.17340087890625,3.814697265625,-4.1046142578125,-2.52532958984375,-0.519775390625,0.4293212890625,0.310546875,11,0,84
2,24,1,28362,55,-0.279296875,0.904541015625,-0.281494140625,2.197265625,-5.72967529296875,0.66375732421875,-0.067138671875,-0.299560546875,0.0244140625,11,0,5
2,24,1,28406,56,-0.279296875,0.904541015625,-0.281494140625,2.197265625,-5.72967529296875,0.66375732421875,-0.0653076171875,-0.30517578125,0.02490234375,11,0,115
2,24,3,28409,56,0.14007568359375,-0.981689453125,-0.1678466796875,3.74603271484375,-3.9520263671875,-2.18963623046875,-0.5233154296875,0.431396484375,0.3017578125,11,0,54
2,24,3,28457,57,0.14007568359375,-0.981689453125,-0.1678466796875,3.74603271484375,-3.9520263671875,-2.18963623046875,-0.5181884765625,0.4312744140625,0.3043212890625,11,0,227
2,24,1,28462,57,-0.2752685546875,0.9051513671875,-0.27569580078125,2.3651123046875,-5.6304931640625,0.7781982421875,-0.0618896484375,-0.30224609375,0.024169921875,11,0,180
2,24,3,28508,58,0.1387939453125,-0.98150634765625,-0.17034912109375,3.76129150390625,-3.5552978515625,-2.08282470703125,-0.5230712890625,0.433349609375,0.3067626953125,11,0,135
2,24,1,28509,58,-0.2752685546875,0.9051513671875,-0.27569580078125,2.3651123046875,-5.6304931640625,0.7781982421875,-0.06494140625,-0.3089599609375,0.022216796875,11,0,43
2,24,3,28565,59,0.1373291015625,-0.9815673828125,-0.1688232421875,4.17327880859375,-3.31878662109375,-2.28118896484375,-0.51904296875,0.4317626953125,0.30615234375,11,0,11
2,24,1,28566,59,-0.27197265625,0.90338134765625,-0.27203369140625,3.01361083984375,-5.86700439453125,0.54931640625,-0.0650634765625,-0.3038330078125,0.0262451171875,11,0,127
2,24,1,28613,60,-0.2681884765625,0.9097900390625,-0.26788330078125,3.265380859375,-4.5928955078125,0.02288818359375,-0.0655517578125,-0.307373046875,0.0263671875,11,0,49
2,24,3,28614,60,0.1373291015625,-0.9815673828125,-0.1688232421875,4.17327880859375,-3.31878662109375,-2.28118896484375,-0.519775390625,0.42724609375,0.30615234375,11,0,29
2,24,3,28666,61,0.14178466796875,-0.980712890625,-0.15960693359375,4.73785400390625,-3.2806396484375,-3.28826904296875,-0.521484375,0.4332275390625,0.3040771484375,11,0,225
2,24,1,28667,61,-0.2681884765625,0.9097900390625,-0.26788330078125,3.265380859375,-4.5928955078125,0.02288818359375,-0.0631103515625,-0.3062744140625,0.0299072265625,11,0,214
2,24,1,28719,62,-0.273681640625,0.9093017578125,-0.277099609375,2.4871826171875,-2.38037109375,-0.61798095703125,-0.065673828125,-0.3028564453125,0.028076171875,11,0,74
2,24,3,28720,62,0.14190673828125,-0.98187255859375,-0.1612548828125,5.06591796875,-3.5858154296875,-3.9215087890625,-0.5186767578125,0.434814453125,0.3021240234375,11,0,85
2,24,1,28771,63,-0.2742919921875,0.9093017578125,-0.2691650390625,2.25830078125,-2.5177001953125,-0.49591064453125,-0.0626220703125,-0.3062744140625,0.0264892578125,11,0,204
2,24,3,28772,63,0.14190673828125,-0.98187255859375,-0.1612548828125,5.06591796875,-3.5858154296875,-3.9215087890625,-0.520263671875,0.43310546875,0.302490234375,11,0,205
2,24,3,28823,64,0.146484375,-0.98187255859375,-0.1591796875,5.0048828125,-3.5552978515625,-3.6163330078125,-0.5234375,0.4342041015625,0.29736328125,11,0,110
2,24,1,28825,64,-0.2742919921875,0.9093017578125,-0.2691650390625,2.25830078125,-2.5177001953125,-0.49591064453125,-0.0606689453125,-0.3046875,0.025634765625,11,0,168
2,24,1,28876,65,-0.2723388671875,0.9091796875,-0.268310546875,2.32696533203125,-3.875732421875,0.1373291015625,-0.061767578125,-0.304443359375,0.0244140625,11,0,189
2,24,3,28878,65,0.14825439453125,-0.98095703125,-0.1544189453125,4.608154296875,-3.24249267578125,-2.8533935546875,-0.5244140625,0.434814453125,0.29931640625,11,0,233
2,24,3,28928,66,0.14825439453125,-0.98095703125,-0.1544189453125,4.608154296875,-3.24249267578125,-2.8533935546875,-0.521484375,0.437744140625,0.3038330078125,11,0,111
2,24,1,28929,66,-0.26824951171875,0.9061279296875,-0.26995849609375,3.1890869140625,-5.889892578125,1.007080078125,-0.06103515625,-0.3067626953125,0.0242919921875,11,0,7
2,24,1,28979,67,-0.2635498046875,0.91046142578125,-0.272216796875,3.88336181640625,-7.3089599609375,1.33514404296875,-0.064208984375,-0.3070068359375,0.0206298828125,11,0,144
2,24,3,28980,67,0.14508056640625,-0.98291015625,-0.15399169921875,4.00543212890625,-2.95257568359375,-1.86920166015625,-0.52197265625,0.4366455078125,0.298095703125,11,0,46
2,24,3,29031,68,0.144287109375,-0.98583984375,-0.153076171875,3.875732421875,-2.8076171875,-1.74713134765625,-0.524658203125,0.4423828125,0.3038330078125,11,0,83
2,24,1,29032,68,-0.2635498046875,0.91046142578125,-0.272216796875,3.88336181640625,-7.3089599609375,1.33514404296875,-0.0654296875,-0.3089599609375,0.0218505859375,11,0,108
2,24,1,29083,69,-0.25927734375,0.910400390625,-0.27001953125,3.88336181640625,-6.866455078125,0.89263916015625,-0.0618896484375,-0.3079833984375,0.02294921875,11,0,181
2,24,3,29084,69,0.144287109375,-0.98583984375,-0.153076171875,3.875732421875,-2.8076171875,-1.74713134765625,-0.5191650390625,0.438720703125,0.2947998046875,11,0,121
2,24,1,29135,70,-0.25927734375,0.910400390625,-0.27001953125,3.88336181640625,-6.866455078125,0.89263916015625,-0.063720703125,-0.3048095703125,0.0267333984375,11,0,63
2,24,3,29139,70,0.143798828125,-0.98443603515625,-0.14910888671875,3.88336181640625,-3.2501220703125,-2.41851806640625,-0.5230712890625,0.437744140625,0.2989501953125,11,0,237
2,24,3,29188,71,0.14471435546875,-0.984619140625,-0.14678955078125,4.0435791015625,-3.53240966796875,-2.75421142578125,-0.5216064453125,0.43994140625,0.2962646484375,11,0,10
2,24,1,29189,71,-0.25811767578125,0.913818359375,-0.2669677734375,3.48663330078125,-6.0577392578125,0.396728515625,-0.0660400390625,-0.3067626953125,0.0223388671875,11,0,42
2,24,3,29240,72,0.14471435546875,-0.984619140625,-0.14678955078125,4.0435791015625,-3.53240966796875,-2.75421142578125,-0.524658203125,0.442138671875,0.296630859375,11,0,225
2,24,1,29241,72,-0.26300048828125,0.91070556640625,-0.27093505859375,3.3416748046875,-5.56182861328125,0.0457763671875,-0.0604248046875,-0.304443359375,0.024658203125,11,0,228
2,24,1,29292,73,-0.26300048828125,0.91070556640625,-0.27093505859375,3.3416748046875,-5.56182861328125,0.0457763671875,-0.062744140625,-0.310546875,0.023193359375,11,0,31
2,24,3,29293,73,0.14483642578125,-0.98382568359375,-0.14544677734375,4.2266845703125,-4.0740966796875,-3.13568115234375,-0.525634765625,0.439208984375,0.2947998046875,11,0,110
2,24,3,29348,74,0.14483642578125,-0.985595703125,-0.144775390625,4.15802001953125,-4.55474853515625,-3.4942626953125,-0.521728515625,0.4364013671875,0.3038330078125,11,0,78
2,24,1,29351,74,-0.25286865234375,0.91339111328125,-0.2650146484375,2.8839111328125,-5.06591796875,-0.08392333984375,-0.0654296875,-0.310791015625,0.0308837890625,11,0,184
2,24,3,29405,75,0.14483642578125,-0.985595703125,-0.144775390625,4.15802001953125,-4.55474853515625,-3.4942626953125,-0.5269775390625,0.43896484375,0.297607421875,11,0,68
2,24,1,29406,75,-0.27008056640625,0.910400390625,-0.27325439453125,2.86865234375,-5.19561767578125,0.1068115234375,-0.0640869140625,-0.3084716796875,0.0196533203125,11,0,191
2,24,1,29450,76,-0.25360107421875,0.91278076171875,-0.2713623046875,3.01361083984375,-5.37109375,0.09918212890625,-0.0616455078125,-0.3079833984375,0.0277099609375,11,0,220
2,24,3,29451,76,0.145751953125,-0.98468017578125,-0.14373779296875,3.4332275390625,-4.1961669921875,-2.838134765625,-0.5230712890625,0.442626953125,0.2978515625,11,0,70
2,24,3,29502,77,0.14788818359375,-0.985107421875,-0.14691162109375,3.0517578125,-4.15802001953125,-2.7008056640625,-0.52587890625,0.4410400390625,0.2982177734375,11,0,105
2,24,1,29503,77,-0.25360107421875,0.91278076171875,-0.2713623046875,3.01361083984375,-5.37109375,0.09918212890625,-0.0640869140625,-0.3057861328125,0.024169921875,11,0,78
2,24,3,29556,78,0.14788818359375,-0.985107421875,-0.14691162109375,3.0517578125,-4.15802001953125,-2.7008056640625,-0.523681640625,0.440185546875,0.298583984375,11,0,154
2,24,1,29557,78,-0.2606201171875,0.91143798828125,-0.26654052734375,3.10516357421875,-4.7760009765625,-0.396728515625,-0.064697265625,-0.3111572265625,0.0235595703125,11,0,173
2,24,1,29607,79,-0.26544189453125,0.90899658203125,-0.27337646484375,3.45611572265625,-4.4403076171875,-0.48828125,-0.0599365234375,-0.309814453125,0.0257568359375,11,0,233
2,24,3,29608,79,0.14630126953125,-0.98406982421875,-0.14752197265625,3.0364990234375,-4.20379638671875,-2.60162353515625,-0.5255126953125,0.4385986328125,0.3004150390625,11,0,141
2,24,1,29609,79,-0.26544189453125,0.90899658203125,-0.27337646484375,3.45611572265625,-4.4403076171875,-0.48828125,-0.0599365234375,-0.309814453125,0.0257568359375,11,0,183
2,24,1,29660,80,-0.26544189453125,0.90899658203125,-0.27337646484375,3.45611572265625,-4.4403076171875,-0.48828125,-0.0654296875,-0.3106689453125,0.02734375,11,0,78
2,24,3,29661,80,0.14752197265625,-0.9840087890625,-0.143798828125,3.10516357421875,-3.997802734375,-2.63214111328125,-0.5238037109375,0.43994140625,0.30126953125,11,0,103
2,24,1,29712,81,-0.26300048828125,0.91143798828125,-0.26763916015625,3.509521484375,-4.45556640625,-0.61798095703125,-0.0657958984375,-0.310302734375,0.021728515625,11,0,111
2,24,3,29714,81,0.14752197265625,-0.9840087890625,-0.143798828125,3.10516357421875,-3.997802734375,-2.63214111328125,-0.5225830078125,0.4403076171875,0.305419921875,11,0,248
2,24,3,29772,82,0.14654541015625,-0.984619140625,-0.145751953125,3.13568115234375,-3.83758544921875,-2.62451171875,-0.525390625,0.4390869140625,0.296630859375,11,0,65
2,24,1,29773,82,-0.2611083984375,0.9088134765625,-0.27203369140625,3.86810302734375,-4.96673583984375,-0.60272216796875,-0.0654296875,-0.3087158203125,0.02490234375,11,0,94
2,24,1,29819,83,-0.2611083984375,0.9088134765625,-0.27203369140625,3.86810302734375,-4.96673583984375,-0.60272216796875,-0.0667724609375,-0.3106689453125,0.0234375,11,0,41
2,24,3,29827,83,0.1484375,-0.98388671875,-0.14190673828125,3.173828125,-3.80706787109375,-2.716064453125,-0.526611328125,0.4376220703125,0.3004150390625,11,0,175
2,24,3,29874,84,0.1492919921875,-0.98382568359375,-0.14166259765625,3.22723388671875,-3.92913818359375,-3.02886962890625,-0.525634765625,0.4404296875,0.29833984375,11,0,241
2,24,1,29881,84,-0.26104736328125,0.91015625,-0.26885986328125,4.1656494140625,-4.41741943359375,-0.69427490234375,-0.0650634765625,-0.3067626953125,0.0218505859375,11,0,159
2,24,3,29921,85,0.1492919921875,-0.98382568359375,-0.14166259765625,3.22723388671875,-3.92913818359375,-3.02886962890625,-0.5242919921875,0.4407958984375,0.30126953125,11,0,142
2,24,1,29922,85,-0.26678466796875,0.9107666015625,-0.28131103515625,4.29534912109375,-3.91387939453125,-0.84686279296875,-0.06396484375,-0.3065185546875,0.0213623046875,11,0,124
2,24,1,29977,86,-0.26678466796875,0.9107666015625,-0.28131103515625,4.29534912109375,-3.91387939453125,-0.84686279296875,-0.0648193359375,-0.3021240234375,0.018798828125,11,0,242
2,24,3,29979,86,0.1495361328125,-0.98406982421875,-0.14044189453125,3.265380859375,-3.99017333984375,-3.2196044921875,-0.5235595703125,0.4417724609375,0.2989501953125,11,0,18
2,24,3,30031,87,0.1495361328125,-0.98406982421875,-0.14044189453125,3.265380859375,-3.99017333984375,-3.2196044921875,-0.524169921875,0.441650390625,0.301025390625,11,0,236
2,24,1,30033,87,-0.26348876953125,0.90643310546875,-0.2789306640625,3.662109375,-3.7078857421875,-1.04522705078125,-0.0638427734375,-0.3045654296875,0.017578125,11,0,64
2,24,1,30081,88,-0.26483154296875,0.90875244140625,-0.2677001953125,3.02886962890625,-3.53240966796875,-1.12152099609375,-0.066162109375,-0.30859375,0.0225830078125,11,0,246
2,24,3,30082,88,0.14923095703125,-0.98321533203125,-0.1444091796875,3.4332275390625,-4.1046142578125,-3.2501220703125,-0.525146484375,0.4429931640625,0.3045654296875,11,0,74
2,24,1,30131,89,-0.26483154296875,0.90875244140625,-0.2677001953125,3.02886962890625,-3.53240966796875,-1.12152099609375,-0.06298828125,-0.307373046875,0.025634765625,11,0,16
2,24,3,30132,89,0.15203857421875,-0.9835205078125,-0.14190673828125,3.6163330078125,-4.15802001953125,-3.4027099609375,-0.5255126953125,0.4403076171875,0.2958984375,11,0,202
2,24,1,30133,89,-0.26483154296875,0.90875244140625,-0.2677001953125,3.02886962890625,-3.53240966796875,-1.12152099609375,-0.06298828125,-0.307373046875,0.025634765625,11,0,133
2,24,3,30184,90,0.15203857421875,-0.9835205078125,-0.14190673828125,3.6163330078125,-4.15802001953125,-3.4027099609375,-0.5240478515625,0.4412841796875,0.292236328125,11,0,128
2,24,1,30185,90,-0.2645263671875,0.9083251953125,-0.27557373046875,3.326416015625,-4.28009033203125,-0.7781982421875,-0.0618896484375,-0.3052978515625,0.029296875,11,0,215
2,24,1,30241,91,-0.267578125,0.91180419921875,-0.27593994140625,3.04412841796875,-4.96673583984375,-0.48828125,-0.0672607421875,-0.3050537109375,0.0205078125,11,0,194
2,24,3,30242,91,0.150390625,-0.9847412109375,-0.1412353515625,3.387451171875,-4.2266845703125,-3.2501220703125,-0.52587890625,0.4378662109375,0.2977294921875,11,0,38
2,24,3,30289,92,0.150634765625,-0.98297119140625,-0.14068603515625,3.0975341796875,-4.2877197265625,-2.64739990234375,-0.5264892578125,0.4373779296875,0.30029296875,11,0,196
2,24,1,30290,92,-0.267578125,0.91180419921875,-0.27593994140625,3.04412841796875,-4.96673583984375,-0.48828125,-0.06494140625,-0.304443359375,0.0252685546875,11,0,117
2,24,3,30341,93,0.150634765625,-0.98297119140625,-0.14068603515625,3.0975341796875,-4.2877197265625,-2.64739990234375,-0.525634765625,0.4376220703125,0.2952880859375,11,0,86
2,24,1,30342,93,-0.2664794921875,0.908447265625,-0.2791748046875,3.18145751953125,-6.12640380859375,0.0762939453125,-0.06103515625,-0.3067626953125,0.0224609375,11,0,23
2,24,3,30344,93,0.150634765625,-0.98297119140625,-0.14068603515625,3.0975341796875,-4.2877197265625,-2.64739990234375,-0.525634765625,0.4376220703125,0.2952880859375,11,0,193
2,24,3,30397,94,0.14996337890625,-0.9847412109375,-0.14227294921875,2.89154052734375,-4.14276123046875,-2.25830078125,-0.5244140625,0.4403076171875,0.296875,11,0,157
2,24,1,30398,94,-0.2613525390625,0.90850830078125,-0.27423095703125,3.1890869140625,-6.4239501953125,0.28228759765625,-0.066162109375,-0.306396484375,0.0242919921875,11,0,22
2,24,1,30445,95,-0.2613525390625,0.90850830078125,-0.27423095703125,3.1890869140625,-6.4239501953125,0.28228759765625,-0.0634765625,-0.308837890625,0.0230712890625,11,0,213
2,24,3,30449,95,0.14794921875,-0.9849853515625,-0.1439208984375,2.93731689453125,-3.814697265625,-2.09808349609375,-0.5225830078125,0.4398193359375,0.2923583984375,11,0,63
2,24,1,30501,96,-0.26068115234375,0.90863037109375,-0.27911376953125,3.31878662109375,-5.82122802734375,0.091552734375,-0.06298828125,-0.30908203125,0.0302734375,11,0,201
2,24,3,30502,96,0.14794921875,-0.9849853515625,-0.1439208984375,2.93731689453125,-3.814697265625,-2.09808349609375,-0.5281982421875,0.4395751953125,0.294189453125,11,0,226
2,24,1,30551,97,-0.26129150390625,0.9083251953125,-0.27490234375,3.21197509765625,-4.92095947265625,-0.34332275390625,-0.06298828125,-0.306884765625,0.0286865234375,11,0,129
2,24,3,30552,97,0.14898681640625,-0.98529052734375,-0.1419677734375,3.021240234375,-4.0283203125,-2.3956298828125,-0.5247802734375,0.434814453125,0.297607421875,11,0,85
2,24,1,30617,98,-0.26129150390625,0.9083251953125,-0.27490234375,3.21197509765625,-4.92095947265625,-0.34332275390625,-0.06591796875,-0.3082275390625,0.0257568359375,11,0,31
2,24,3,30618,98,0.1494140625,-0.9849853515625,-0.1429443359375,3.265380859375,-4.32586669921875,-2.96783447265625,-0.525390625,0.44140625,0.2950439453125,11,0,16
2,24,3,30659,99,0.15240478515625,-0.98516845703125,-0.14349365234375,3.66973876953125,-4.52423095703125,-3.68499755859375,-0.52587890625,0.4381103515625,0.292236328125,11,0,15
2,24,1,30660,99,-0.25909423828125,0.90966796875,-0.27362060546875,3.1280517578125,-4.4403076171875,-0.5340576171875,-0.06396484375,-0.3072509765625,0.0220947265625,11,0,151
2,24,1,30713,100,-0.2490234375,0.90753173828125,-0.27587890625,2.8076171875,-3.662109375,-0.20599365234375,-0.06591796875,-0.310546875,0.0247802734375,11,0,36
2,24,3,30717,100,0.15240478515625,-0.98516845703125,-0.14349365234375,3.66973876953125,-4.52423095703125,-3.68499755859375,-0.527099609375,0.4395751953125,0.2978515625,11,0,62
2,24,1,30760,101,-0.2490234375,0.90753173828125,-0.27587890625,2.8076171875,-3.662109375,-0.20599365234375,-0.0653076171875,-0.31005859375,0.0283203125,11,0,45
2,24,3,30761,101,0.15447998046875,-0.984130859375,-0.1356201171875,3.8299560546875,-4.08935546875,-3.936767578125,-0.5308837890625,0.4375,0.2972412109375,11,0,79
2,24,1,30817,102,-0.227294921875,0.91766357421875,-0.26165771484375,3.27301025390625,-2.8533935546875,0.885009765625,-0.068115234375,-0.3060302734375,0.0274658203125,11,0,27
2,24,3,30819,102,0.15447998046875,-0.984130859375,-0.1356201171875,3.8299560546875,-4.08935546875,-3.936767578125,-0.528076171875,0.4420166015625,0.2939453125,11,0,51
2,24,3,30865,103,0.14239501953125,-0.9871826171875,-0.14013671875,4.2724609375,-2.92205810546875,-5.53131103515625,-0.531494140625,0.4383544921875,0.2978515625,11,0,151
2,24,1,30870,103,-0.217529296875,0.92047119140625,-0.276123046875,3.84521484375,-4.2877197265625,1.94549560546875,-0.0699462890625,-0.30810546875,0.0262451171875,11,0,213
2,24,1,30922,104,-0.217529296875,0.92047119140625,-0.276123046875,3.84521484375,-4.2877197265625,1.94549560546875,-0.0660400390625,-0.311767578125,0.02734375,11,0,42
2,24,3,30923,104,0.17230224609375,-0.97406005859375,-0.1287841796875,2.86865234375,-4.73785400390625,-7.8277587890625,-0.53125,0.44091796875,0.2945556640625,11,0,180
2,24,3,30971,105,0.17230224609375,-0.97406005859375,-0.1287841796875,2.86865234375,-4.73785400390625,-7.8277587890625,-0.529541015625,0.4420166015625,0.2962646484375,11,0,4
2,24,1,30972,105,-0.213623046875,0.921630859375,-0.2740478515625,4.4708251953125,-3.16619873046875,1.09100341796875,-0.0670166015625,-0.3104248046875,0.0284423828125,11,0,12
2,24,1,31025,106,-0.23016357421875,0.93096923828125,-0.2777099609375,4.87518310546875,-0.5645751953125,-0.9307861328125,-0.0692138671875,-0.3114013671875,0.0223388671875,11,0,135
2,24,3,31026,106,0.1676025390625,-0.97772216796875,-0.14544677734375,-2.51007080078125,-7.98797607421875,-3.8604736328125,-0.529052734375,0.433349609375,0.301025390625,11,0,67
2,24,3,31074,107,0.15740966796875,-0.96533203125,-0.15399169921875,-4.23431396484375,-8.8958740234375,-2.44140625,-0.526123046875,0.4346923828125,0.302001953125,11,0,240
2,24,1,31079,107,-0.23016357421875,0.93096923828125,-0.2777099609375,4.87518310546875,-0.5645751953125,-0.9307861328125,-0.066650390625,-0.310791015625,0.0308837890625,11,0,121
2,24,1,31127,108,-0.23065185546875,0.92193603515625,-0.2830810546875,2.35748291015625,-1.30462646484375,-2.00653076171875,-0.073486328125,-0.3094482421875,0.02294921875,11,0,84
2,24,3,31128,108,0.15740966796875,-0.96533203125,-0.15399169921875,-4.23431396484375,-8.8958740234375,-2.44140625,-0.5301513671875,0.4312744140625,0.306396484375,11,0,25
2,24,1,31180,109,-0.2457275390625,0.95135498046875,-0.26092529296875,-2.166748046875,-1.556396484375,-2.3193359375,-0.065673828125,-0.3082275390625,0.02783203125,11,0,126
2,24,3,31181,109,0.14471435546875,-0.9605712890625,-0.178466796875,-4.72259521484375,-7.537841796875,-3.37982177734375,-0.5284423828125,0.432373046875,0.3084716796875,11,0,207
2,24,1,31232,110,-0.2457275390625,0.95135498046875,-0.26092529296875,-2.166748046875,-1.556396484375,-2.3193359375,-0.0628662109375,-0.3070068359375,0.023681640625,11,0,60
2,24,3,31233,110,0.157470703125,-0.96270751953125,-0.1953125,-5.63812255859375,-6.53839111328125,-6.7596435546875,-0.526123046875,0.430419921875,0.3087158203125,11,0,54
2,24,3,31283,111,0.157470703125,-0.96270751953125,-0.1953125,-5.63812255859375,-6.53839111328125,-6.7596435546875,-0.531494140625,0.4273681640625,0.3057861328125,11,0,23
2,24,1,31284,111,-0.2589111328125,0.932373046875,-0.249755859375,-10.833740234375,1.129150390625,-5.0048828125,-0.0643310546875,-0.3048095703125,0.0238037109375,11,0,233
2,24,3,31285,111,0.157470703125,-0.96270751953125,-0.1953125,-5.63812255859375,-6.53839111328125,-6.7596435546875,-0.531494140625,0.4273681640625,0.3057861328125,11,0,130
2,24,3,31334,112,0.19830322265625,-0.943359375,-0.20758056640625,-3.95965576171875,-6.09588623046875,-10.5133056640625,-0.5341796875,0.4249267578125,0.30908203125,11,0,41
2,24,1,31335,112,-0.3360595703125,0.85150146484375,-0.256591796875,-19.012451171875,8.97979736328125,-10.0555419921875,-0.06298828125,-0.299560546875,0.026611328125,11,0,64
2,24,3,31390,113,0.1912841796875,-0.9913330078125,-0.2259521484375,-2.05230712890625,-5.4779052734375,-6.46209716796875,-0.5341796875,0.4227294921875,0.30908203125,11,0,123
2,24,1,31391,113,-0.3360595703125,0.85150146484375,-0.256591796875,-19.012451171875,8.97979736328125,-10.0555419921875,-0.06396484375,-0.3009033203125,0.0284423828125,11,0,228
2,24,3,31439,114,0.1912841796875,-0.9913330078125,-0.2259521484375,-2.05230712890625,-5.4779052734375,-6.46209716796875,-0.533447265625,0.4241943359375,0.31640625,11,0,111
2,24,1,31440,114,-0.36834716796875,0.926513671875,-0.2744140625,-17.0135498046875,9.20867919921875,-10.6201171875,-0.0618896484375,-0.300048828125,0.0179443359375,11,0,60
2,24,3,31491,115,0.1832275390625,-0.9686279296875,-0.215576171875,2.349853515625,-4.3792724609375,-1.16729736328125,-0.531494140625,0.4248046875,0.3118896484375,11,0,104
2,24,1,31493,115,-0.343505859375,0.87774658203125,-0.2476806640625,-8.4228515625,-4.82177734375,-6.38580322265625,-0.0626220703125,-0.2974853515625,0.0189208984375,11,0,175
2,24,3,31543,116,0.17486572265625,-0.96099853515625,-0.19049072265625,4.93621826171875,-1.3885498046875,2.20489501953125,-0.528076171875,0.4232177734375,0.3150634765625,11,0,28
2,24,1,31546,116,-0.343505859375,0.87774658203125,-0.2476806640625,-8.4228515625,-4.82177734375,-6.38580322265625,-0.0615234375,-0.3018798828125,0.0081787109375,11,0,133
2,24,1,31595,117,-0.34100341796875,0.8583984375,-0.19366455078125,-5.4473876953125,-7.4462890625,-1.068115234375,-0.06298828125,-0.302734375,0.0062255859375,11,0,190
2,24,3,31596,117,0.17486572265625,-0.96099853515625,-0.19049072265625,4.93621826171875,-1.3885498046875,2.20489501953125,-0.53271484375,0.4267578125,0.3094482421875,11,0,17
2,24,1,31648,118,-0.34039306640625,0.8714599609375,-0.22900390625,-1.40380859375,-12.2833251953125,3.41796875,-0.0625,-0.3013916015625,0.0062255859375,11,0,129
2,24,3,31649,118,0.170654296875,-0.9771728515625,-0.17938232421875,5.37109375,-0.9918212890625,-0.11444091796875,-0.5325927734375,0.4285888671875,0.309326171875,11,0,45
2,24,1,31704,119,-0.34039306640625,0.8714599609375,-0.22900390625,-1.40380859375,-12.2833251953125,3.41796875,-0.0672607421875,-0.305908203125,0.0086669921875,11,0,206
2,24,3,31705,119,0.17138671875,-0.97943115234375,-0.19439697265625,4.94384765625,-0.46539306640625,-2.410888671875,-0.5341796875,0.4263916015625,0.3084716796875,11,0,229
2,24,1,31753,120,-0.32806396484375,0.8736572265625,-0.2620849609375,9.2010498046875,-16.9525146484375,8.11767578125,-0.064697265625,-0.3125,0.006103515625,11,0,113
2,24,3,31754,120,0.17138671875,-0.97943115234375,-0.19439697265625,4.94384765625,-0.46539306640625,-2.410888671875,-0.53564453125,0.43115234375,0.30126953125,11,0,154
2,24,3,31805,121,0.1895751953125,-1.0341796875,-0.18310546875,8.1634521484375,2.29644775390625,-5.97381591796875,-0.5367431640625,0.43359375,0.294921875,11,0,122
2,24,1,31806,121,-0.26019287109375,1.5648193359375,-0.1881103515625,18.39447021484375,-17.3797607421875,11.2457275390625,-0.066650390625,-0.311767578125,0.0018310546875,11,0,134
2,24,1,31858,122,-0.3792724609375,0.67437744140625,-0.25225830078125,5.9051513671875,-22.63641357421875,4.49371337890625,-0.0682373046875,-0.312744140625,0.0015869140625,11,0,72
2,24,3,31859,122,0.23309326171875,-0.93505859375,-0.1494140625,19.1802978515625,1.9378662109375,-12.68768310546875,-0.54443359375,0.4346923828125,0.2900390625,11,0,128
2,24,3,31911,123,0.23309326171875,-0.93505859375,-0.1494140625,19.1802978515625,1.9378662109375,-12.68768310546875,-0.5394287109375,0.43603515625,0.294921875,11,0,175
2,24,1,31914,123,-0.3792724609375,0.67437744140625,-0.25225830078125,5.9051513671875,-22.63641357421875,4.49371337890625,-0.067138671875,-0.31591796875,0.006103515625,11,0,191
2,24,3,31968,124,0.2239990234375,-0.939453125,-0.0924072265625,9.979248046875,-1.02996826171875,-4.67681884765625,-0.5380859375,0.440185546875,0.28857421875,11,0,65
2,24,1,31969,124,-0.2200927734375,0.97735595703125,-0.0313720703125,-4.23431396484375,8.331298828125,-2.3651123046875,-0.0692138671875,-0.30859375,0.0067138671875,11,0,149
2,24,3,32015,125,0.088623046875,-1.03765869140625,-0.15032958984375,8.67462158203125,-0.30517578125,8.2855224609375,-0.538818359375,0.4407958984375,0.2872314453125,11,0,248
2,24,1,32017,125,-0.2200927734375,0.97735595703125,-0.0313720703125,-4.23431396484375,8.331298828125,-2.3651123046875,-0.06982421875,-0.3118896484375,0.0064697265625,11,0,186
2,24,1,32068,126,-0.2801513671875,0.90643310546875,-0.22723388671875,2.655029296875,-3.448486328125,-3.72314453125,-0.0701904296875,-0.31298828125,0.00537109375,11,0,195
2,24,3,32069,126,0.088623046875,-1.03765869140625,-0.15032958984375,8.67462158203125,-0.30517578125,8.2855224609375,-0.5447998046875,0.4423828125,0.2857666015625,11,0,95
2,24,3,32121,127,0.20745849609375,-1.00579833984375,-0.1552734375,9.368896484375,-0.74005126953125,-5.88226318359375,-0.551513671875,0.443359375,0.2867431640625,11,0,119
2,24,1,32122,127,-0.244873046875,0.96771240234375,-0.1556396484375,0.52642822265625,-5.2947998046875,2.87628173828125,-0.0667724609375,-0.3087158203125,0.0047607421875,11,0,212
2,24,3,32172,128,0.19500732421875,-0.95947265625,-0.08941650390625,10.56671142578125,5.14984130859375,-14.42718505859375,-0.5634765625,0.443359375,0.280517578125,11,0,6
2,24,1,32173,128,-0.244873046875,0.96771240234375,-0.1556396484375,0.52642822265625,-5.2947998046875,2.87628173828125,-0.0704345703125,-0.314697265625,0.0003662109375,11,0,183
2,24,1,32228,129,-0.23199462890625,0.88037109375,-0.158935546875,4.82940673828125,-8.0108642578125,2.08282470703125,-0.072265625,-0.3140869140625,0.000244140625,11,0,251
2,24,3,32229,129,0.19500732421875,-0.95947265625,-0.08941650390625,10.56671142578125,5.14984130859375,-14.42718505859375,-0.5670166015625,0.446533203125,0.274169921875,11,0,207
2,24,3,32277,130,0.1956787109375,-0.99407958984375,-0.0693359375,13.97705078125,5.523681640625,-21.55303955078125,-0.5787353515625,0.448486328125,0.2705078125,11,0,235
2,24,1,32278,130,-0.26348876953125,0.95843505859375,-0.14263916015625,6.53839111328125,-8.1329345703125,2.99835205078125,-0.0726318359375,-0.3177490234375,-0.0059814453125,11,0,55
2,24,1,32331,131,-0.26495361328125,0.93603515625,-0.18255615234375,6.53839111328125,-8.1329345703125,2.99835205078125,-0.07373046875,-0.3182373046875,-0.0057373046875,11,0,96
2,24,3,32332,131,0.2899169921875,-1.0361328125,-0.0360107421875,20.79010009765625,0.61798095703125,-32.989501953125,-0.5926513671875,0.4505615234375,0.260009765625,11,0,142
2,24,3,32385,132,0.2899169921875,-1.0361328125,-0.0360107421875,20.79010009765625,0.61798095703125,-32.989501953125,-0.6104736328125,0.4493408203125,0.2620849609375,11,0,63
2,24,1,32386,132,-0.26495361328125,0.93603515625,-0.18255615234375,5.28717041015625,-11.46697998046875,4.150390625,-0.0767822265625,-0.319580078125,-0.0042724609375,11,0,86
2,24,3,32434,133,0.276123046875,-1.25189208984375,0.0166015625,18.85986328125,5.096435546875,-44.05975341796875,-0.6357421875,0.4334716796875,0.2562255859375,11,0,134
2,24,1,32435,133,-0.27008056640625,0.96270751953125,-0.11492919921875,6.96563720703125,-17.76123046875,8.29315185546875,-0.079345703125,-0.3231201171875,-0.018798828125,11,0,97
2,24,1,32486,134,-0.157958984375,0.88604736328125,-0.1361083984375,4.5013427734375,-35.7513427734375,13.885498046875,-0.082763671875,-0.3272705078125,-0.0281982421875,11,0,205
2,24,3,32487,134,0.25738525390625,-1.3892822265625,-0.15850830078125,2.8839111328125,6.15692138671875,-69.4427490234375,-0.647216796875,0.4306640625,0.253662109375,11,0,155
2,24,1,32538,135,-0.157958984375,0.88604736328125,-0.1361083984375,4.5013427734375,-35.7513427734375,13.885498046875,-0.0845947265625,-0.327880859375,-0.0394287109375,11,0,247
2,24,3,32539,135,0.25738525390625,-1.3892822265625,-0.15850830078125,2.8839111328125,6.15692138671875,-69.4427490234375,-0.684814453125,0.406005859375,0.2454833984375,11,0,182
2,24,3,32590,136,1.1915283203125,-0.92779541015625,-0.034423828125,-2.99835205078125,27.73284912109375,-81.512451171875,-0.7020263671875,0.382080078125,0.2447509765625,11,0,106
2,24,1,32591,136,-0.10498046875,1.03070068359375,-0.184326171875,-0.78582763671875,-45.58563232421875,10.73455810546875,-0.0882568359375,-0.32861328125,-0.038818359375,11,0,66
2,24,1,32644,137,-0.10498046875,1.03070068359375,-0.184326171875,-0.78582763671875,-45.58563232421875,10.73455810546875,-0.0914306640625,-0.334228515625,-0.0419921875,11,0,45
2,24,3,32645,137,0.48089599609375,-0.35467529296875,0.250732421875,-19.78302001953125,36.61346435546875,-76.1566162109375,-0.717041015625,0.360107421875,0.2432861328125,11,0,209
2,24,1,32695,138,-0.126953125,0.96893310546875,-0.2110595703125,0.64849853515625,-18.37921142578125,5.2337646484375,-0.0908203125,-0.331787109375,-0.0419921875,11,0,242
2,24,3,32697,138,0.48089599609375,-0.35467529296875,0.250732421875,-19.78302001953125,36.61346435546875,-76.1566162109375,-0.7210693359375,0.35009765625,0.239501953125,11,0,177
2,24,1,32748,139,-0.08953857421875,0.89996337890625,-0.1536865234375,6.53839111328125,-6.8206787109375,3.7078857421875,-0.0899658203125,-0.3338623046875,-0.0362548828125,11,0,40
2,24,3,32749,139,0.20477294921875,-0.0111083984375,0.27685546875,-4.5013427734375,7.8125,-47.24884033203125,-0.722900390625,0.3543701171875,0.2364501953125,11,0,78
2,24,1,32800,140,-0.08953857421875,0.89996337890625,-0.1536865234375,6.53839111328125,-6.8206787109375,3.7078857421875,-0.087646484375,-0.3348388671875,-0.0328369140625,11,0,70
2,24,3,32803,140,-0.05120849609375,0.19696044921875,0.02490234375,23.62060546875,-7.4615478515625,-10.3759765625,-0.71044921875,0.3717041015625,0.2384033203125,11,0,5
2,24,1,32852,141,-0.10455322265625,0.92529296875,-0.20001220703125,10.32257080078125,-0.78582763671875,-0.6103515625,-0.086181640625,-0.331787109375,-0.0224609375,11,0,246
2,24,3,32853,141,-0.05120849609375,0.19696044921875,0.02490234375,23.62060546875,-7.4615478515625,-10.3759765625,-0.6766357421875,0.4072265625,0.2410888671875,11,0,229
2,24,3,32905,142,-0.36859130859375,-0.28179931640625,-0.07611083984375,17.60101318359375,-10.4827880859375,64.1326904296875,-0.6116943359375,0.4505615234375,0.236328125,11,0,248
2,24,1,32907,142,-0.11968994140625,0.93658447265625,-0.24169921875,11.4288330078125,14.46533203125,-10.26153564453125,-0.080322265625,-0.3253173828125,-0.0177001953125,11,0,5
2,24,3,32910,142,-0.36859130859375,-0.28179931640625,-0.07611083984375,17.60101318359375,-10.4827880859375,64.1326904296875,-0.6116943359375,0.4505615234375,0.236328125,11,0,215
2,24,1,32957,143,-0.31878662109375,1.162841796875,-0.01776123046875,16.10565185546875,23.00262451171875,-16.96014404296875,-0.0760498046875,-0.31787109375,0.00732421875,11,0,168
2,24,3,32961,143,0.4830322265625,-1.999755859375,-0.8138427734375,-1.6632080078125,-7.781982421875,195.9075927734375,-0.573486328125,0.4835205078125,0.241943359375,11,0,58
2,24,1,33009,144,-0.31878662109375,1.162841796875,-0.01776123046875,16.10565185546875,23.00262451171875,-16.96014404296875,-0.0753173828125,-0.32080078125,0.005615234375,11,0,71
2,24,3,33010,144,0.4830322265625,-1.999755859375,-0.8138427734375,-1.6632080078125,-7.781982421875,195.9075927734375,-0.530029296875,0.468994140625,0.2330322265625,11,0,151
2,24,1,33061,145,-0.1563720703125,0.68841552734375,-0.18084716796875,12.29095458984375,34.4696044921875,-8.7738037109375,-0.0794677734375,-0.3214111328125,-0.00048828125,11,0,61
2,24,3,33063,145,0.8455810546875,-0.48828125,0.62359619140625,-9.4757080078125,-3.21197509765625,98.28948974609375,-0.51708984375,0.4642333984375,0.234619140625,11,0,106
2,24,1,33114,146,-0.04705810546875,0.8377685546875,-0.10382080078125,6.3934326171875,-31.097412109375,9.33074951171875,-0.0791015625,-0.327392578125,-0.0057373046875,11,0,218
2,24,3,33115,146,-0.0135498046875,-0.70745849609375,-0.02593994140625,-9.59014892578125,9.55963134765625,46.86737060546875,-0.50732421875,0.460205078125,0.24951171875,11,0,245
2,24,3,33166,147,-0.0135498046875,-0.70745849609375,-0.02593994140625,-9.59014892578125,9.55963134765625,46.86737060546875,-0.49755859375,0.455810546875,0.247802734375,11,0,37
2,24,1,33167,147,-0.04705810546875,0.8377685546875,-0.10382080078125,6.3934326171875,-31.097412109375,9.33074951171875,-0.0814208984375,-0.3284912109375,-0.0125732421875,11,0,63
2,24,3,33170,147,-0.0135498046875,-0.70745849609375,-0.02593994140625,-9.59014892578125,9.55963134765625,46.86737060546875,-0.49755859375,0.455810546875,0.247802734375,11,0,153
2,24,1,33218,148,-0.40472412109375,1.053466796875,-0.2559814453125,-2.9144287109375,-22.8271484375,1.80816650390625,-0.07861328125,-0.3260498046875,-0.0137939453125,11,0,79
2,24,3,33220,148,-0.199462890625,-1.02288818359375,-0.23486328125,-21.43096923828125,7.56072998046875,38.8031005859375,-0.5020751953125,0.4581298828125,0.244873046875,11,0,236
2,24,1,33277,149,-0.228515625,0.8616943359375,-0.1602783203125,-5.1727294921875,-4.11224365234375,-3.0975341796875,-0.0770263671875,-0.324951171875,-0.0159912109375,11,0,45
2,24,3,33278,149,0.02557373046875,-1.02825927734375,-0.04736328125,-6.34765625,-11.627197265625,-4.12750244140625,-0.4981689453125,0.4581298828125,0.2509765625,11,0,222
2,24,3,33323,150,0.02557373046875,-1.02825927734375,-0.04736328125,-6.34765625,-11.627197265625,-4.12750244140625,-0.4957275390625,0.45947265625,0.2489013671875,11,0,149
2,24,1,33326,150,-0.228515625,0.8616943359375,-0.1602783203125,-5.1727294921875,-4.11224365234375,-3.0975341796875,-0.07666015625,-0.3231201171875,-0.012939453125,11,0,236
2,24,3,33375,151,0.02032470703125,-1.0145263671875,-0.07415771484375,4.608154296875,-21.5301513671875,-3.6163330078125,-0.495361328125,0.4561767578125,0.2510986328125,11,0,27
2,24,1,33376,151,-0.177490234375,0.9588623046875,-0.204833984375,4.6844482421875,-11.80267333984375,-2.60162353515625,-0.07958984375,-0.3245849609375,-0.0081787109375,11,0,122
2,24,3,33427,152,-0.049560546875,-0.9840087890625,-0.10699462890625,-1.007080078125,-17.8985595703125,1.8157958984375,-0.4903564453125,0.4517822265625,0.25634765625,11,0,136
2,24,1,33429,152,-0.2718505859375,0.9041748046875,-0.2408447265625,7.9803466796875,4.82940673828125,-2.99835205078125,-0.0789794921875,-0.32861328125,-0.0050048828125,11,0,131
2,24,1,33484,153,-0.2718505859375,0.9041748046875,-0.2408447265625,7.9803466796875,4.82940673828125,-2.99835205078125,-0.077880859375,-0.3209228515625,-0.0009765625,11,0,193
2,24,3,33488,153,-0.049560546875,-0.9840087890625,-0.10699462890625,-1.007080078125,-17.8985595703125,1.8157958984375,-0.4857177734375,0.452392578125,0.25390625,11,0,101
2,24,1,33534,154,-0.23394775390625,0.9210205078125,-0.23138427734375,9.1400146484375,3.50189208984375,-1.2969970703125,-0.0743408203125,-0.31787109375,0.0029296875,11,0,13
2,24,3,33536,154,-0.04998779296875,-0.9853515625,-0.11962890625,-1.5106201171875,-23.193359375,-6.988525390625,-0.49072265625,0.449951171875,0.26318359375,11,0,27
2,24,1,33586,155,-0.3175048828125,0.8994140625,-0.26031494140625,9.69696044921875,3.2806396484375,-2.593994140625,-0.0750732421875,-0.320068359375,0.0047607421875,11,0,41
2,24,3,33587,155,-0.0189208984375,-0.999755859375,-0.11883544921875,-1.50299072265625,-3.60107421875,-3.082275390625,-0.489990234375,0.4512939453125,0.259033203125,11,0,220
2,24,3,33640,156,-0.0189208984375,-0.999755859375,-0.11883544921875,-1.50299072265625,-3.60107421875,-3.082275390625,-0.485595703125,0.449951171875,0.253662109375,11,0,48
2,24,1,33641,156,-0.3175048828125,0.8994140625,-0.26031494140625,9.69696044921875,3.2806396484375,-2.593994140625,-0.0745849609375,-0.3203125,0.0020751953125,11,0,193
2,24,1,33691,157,-0.2607421875,0.939208984375,-0.26300048828125,9.3841552734375,-1.22833251953125,-2.26593017578125,-0.0751953125,-0.3175048828125,0.0079345703125,11,0,122
2,24,3,33692,157,0.02545166015625,-1.00927734375,-0.08953857421875,-0.05340576171875,-4.60052490234375,-3.7689208984375,-0.4886474609375,0.450927734375,0.2574462890625,11,0,87
2,24,1,33742,158,-0.27178955078125,0.91400146484375,-0.264892578125,8.24737548828125,-6.27899169921875,-0.6103515625,-0.0733642578125,-0.3201904296875,0.000732421875,11,0,182
2,24,3,33743,158,-0.03857421875,-0.9942626953125,-0.12188720703125,1.27410888671875,-3.875732421875,-2.50244140625,-0.4886474609375,0.4466552734375,0.258544921875,11,0,29
2,24,1,33794,159,-0.27178955078125,0.91400146484375,-0.264892578125,8.24737548828125,-6.27899169921875,-0.6103515625,-0.0740966796875,-0.319580078125,0.0068359375,11,0,1
2,24,3,33795,159,-0.03857421875,-0.9942626953125,-0.12188720703125,1.27410888671875,-3.875732421875,-2.50244140625,-0.488525390625,0.453125,0.2596435546875,11,0,79
2,24,1,33850,160,-0.21624755859375,0.9190673828125,-0.24615478515625,7.48443603515625,-11.932373046875,1.2054443359375,-0.0760498046875,-0.3228759765625,0.0035400390625,11,0,124
2,24,3,33851,160,-0.0400390625,-0.9783935546875,-0.1019287109375,1.4495849609375,-1.35040283203125,-2.87628173828125,-0.4903564453125,0.4534912109375,0.2606201171875,11,0,243
2,24,1,33898,161,-0.2294921875,0.9315185546875,-0.2745361328125,4.08172607421875,-11.871337890625,1.30462646484375,-0.07177734375,-0.3231201171875,-0.003662109375,11,0,61
2,24,3,33899,161,0.02215576171875,-1.00921630859375,-0.10626220703125,1.6632080078125,-6.66046142578125,-5.462646484375,-0.48974609375,0.4552001953125,0.2607421875,11,0,214
2,24,3,33951,162,0.02215576171875,-1.00921630859375,-0.10626220703125,1.6632080078125,-6.66046142578125,-5.462646484375,-0.4896240234375,0.451904296875,0.261962890625,11,0,104
2,24,1,33953,162,-0.2294921875,0.9315185546875,-0.2745361328125,4.08172607421875,-11.871337890625,1.30462646484375,-0.0777587890625,-0.3204345703125,-0.0008544921875,11,0,46
2,24,3,34003,163,-0.029052734375,-0.99151611328125,-0.11798095703125,1.57928466796875,-5.6304931640625,-6.16455078125,-0.491943359375,0.448974609375,0.2611083984375,11,0,89
2,24,1,34004,163,-0.2149658203125,0.91748046875,-0.26300048828125,2.8839111328125,-4.21142578125,-0.64849853515625,-0.075439453125,-0.3175048828125,0.0103759765625,11,0,141
2,24,1,34062,164,-0.22161865234375,0.92193603515625,-0.250732421875,2.7923583984375,2.54058837890625,-3.18145751953125,-0.075439453125,-0.3209228515625,0.00341796875,11,0,96
2,24,3,34063,164,0.15692138671875,-1.03021240234375,-0.10150146484375,1.88446044921875,-5.1727294921875,-8.087158203125,-0.4920654296875,0.4559326171875,0.259521484375,11,0,230
2,24,3,34111,165,0.15692138671875,-1.03021240234375,-0.10150146484375,1.88446044921875,-5.1727294921875,-8.087158203125,-0.494873046875,0.4520263671875,0.2667236328125,11,0,2
2,24,1,34112,165,-0.22161865234375,0.92193603515625,-0.250732421875,2.7923583984375,2.54058837890625,-3.18145751953125,-0.07470703125,-0.31982421875,0.0106201171875,11,0,190
2,24,3,34161,166,0.0330810546875,-1.00177001953125,-0.12286376953125,0.9765625,-5.0201416015625,-8.4686279296875,-0.497314453125,0.453369140625,0.26611328125,11,0,180
2,24,1,34163,166,-0.25726318359375,0.9183349609375,-0.25933837890625,0.84686279296875,6.72149658203125,-4.53948974609375,-0.07373046875,-0.3148193359375,0.011474609375,11,0,148
2,24,3,34220,167,0.02215576171875,-1.0015869140625,-0.125244140625,0.05340576171875,-3.22723388671875,-5.85174560546875,-0.4951171875,0.4537353515625,0.2640380859375,11,0,156
2,24,1,34225,167,-0.2589111328125,0.9156494140625,-0.24822998046875,0.152587890625,7.88116455078125,-4.9896240234375,-0.076171875,-0.318359375,0.0089111328125,11,0,25
2,24,1,34268,168,-0.2589111328125,0.9156494140625,-0.24822998046875,0.152587890625,7.88116455078125,-4.9896240234375,-0.0748291015625,-0.314453125,0.0167236328125,11,0,24
2,24,3,34272,168,0.02215576171875,-1.0015869140625,-0.125244140625,0.05340576171875,-3.22723388671875,-5.85174560546875,-0.4954833984375,0.4493408203125,0.263427734375,11,0,101
2,24,1,34317,169,-0.26104736328125,0.9212646484375,-0.26165771484375,-0.14495849609375,4.76837158203125,-4.7149658203125,-0.0740966796875,-0.315185546875,0.0152587890625,11,0,236
2,24,3,34318,169,0.05963134765625,-1.0013427734375,-0.09698486328125,4.89044189453125,-7.781982421875,-6.56890869140625,-0.49609375,0.453125,0.2640380859375,11,0,100
2,24,3,34370,170,0.056884765625,-1.00274658203125,-0.11602783203125,5.65338134765625,-7.904052734375,-4.50897216796875,-0.4990234375,0.4525146484375,0.259033203125,11,0,59
2,24,1,34371,170,-0.26025390625,0.9149169921875,-0.26556396484375,-0.3509521484375,3.2196044921875,-4.29534912109375,-0.0709228515625,-0.3123779296875,0.01708984375,11,0,33
2,24,1,34422,171,-0.26025390625,0.9149169921875,-0.26556396484375,-0.3509521484375,3.2196044921875,-4.29534912109375,-0.070068359375,-0.31103515625,0.0155029296875,11,0,26
2,24,3,34423,171,0.056884765625,-1.00274658203125,-0.11602783203125,5.65338134765625,-7.904052734375,-4.50897216796875,-0.4976806640625,0.4527587890625,0.2598876953125,11,0,116
2,24,1,34475,172,-0.25103759765625,0.91021728515625,-0.25872802734375,0.8544921875,1.51824951171875,-3.82232666015625,-0.0692138671875,-0.309814453125,0.018798828125,11,0,137
2,24,3,34476,172,0.0269775390625,-0.99969482421875,-0.0987548828125,6.6375732421875,-6.08062744140625,-2.72369384765625,-0.49609375,0.4537353515625,0.2589111328125,11,0,8
2,24,1,34535,173,-0.25494384765625,0.91314697265625,-0.2672119140625,1.70135498046875,0.396728515625,-3.04412841796875,-0.0679931640625,-0.310302734375,0.02392578125,11,0,156
2,24,3,34536,173,0.02410888671875,-0.9971923828125,-0.10186767578125,6.3934326171875,-6.59942626953125,-3.34930419921875,-0.493408203125,0.453369140625,0.2515869140625,11,0,243
2,24,1,34584,174,-0.25494384765625,0.91314697265625,-0.2672119140625,1.70135498046875,0.396728515625,-3.04412841796875,-0.06640625,-0.31103515625,0.0223388671875,11,0,5
2,24,3,34586,174,0.02410888671875,-0.9971923828125,-0.10186767578125,6.3934326171875,-6.59942626953125,-3.34930419921875,-0.49267578125,0.4534912109375,0.2578125,11,0,76
2,24,1,34634,175,-0.2508544921875,0.9132080078125,-0.2666015625,2.9144287109375,-0.26702880859375,-2.06756591796875,-0.0706787109375,-0.3123779296875,0.0205078125,11,0,208
2,24,3,34636,175,0.04034423828125,-0.99969482421875,-0.09423828125,5.04302978515625,-6.3323974609375,-3.2196044921875,-0.496337890625,0.4527587890625,0.26025390625,11,0,102
2,24,1,34685,176,-0.2601318359375,0.917236328125,-0.26959228515625,4.21142578125,-1.77764892578125,-1.129150390625,-0.0679931640625,-0.3111572265625,0.021240234375,11,0,68
2,24,3,34686,176,0.03790283203125,-1.0006103515625,-0.098876953125,3.91387939453125,-5.2642822265625,-2.6702880859375,-0.497802734375,0.451416015625,0.256591796875,11,0,144
2,24,1,34741,177,-0.2601318359375,0.917236328125,-0.26959228515625,4.21142578125,-1.77764892578125,-1.129150390625,-0.0670166015625,-0.30859375,0.02734375,11,0,191
2,24,3,34742,177,0.03790283203125,-1.0006103515625,-0.098876953125,3.91387939453125,-5.2642822265625,-2.6702880859375,-0.4949951171875,0.453857421875,0.2520751953125,11,0,96
2,24,1,34790,178,-0.258544921875,0.91351318359375,-0.27069091796875,4.26483154296875,-4.5318603515625,-0.335693359375,-0.070556640625,-0.3094482421875,0.0277099609375,11,0,20
2,24,3,34791,178,0.0413818359375,-1.000732421875,-0.09698486328125,3.54766845703125,-4.5318603515625,-2.57110595703125,-0.494140625,0.454833984375,0.2567138671875,11,0,119
2,24,1,34841,179,-0.2530517578125,0.919677734375,-0.26715087890625,4.180908203125,-7.51495361328125,0.335693359375,-0.0712890625,-0.312744140625,0.0224609375,11,0,118
2,24,3,34842,179,0.0228271484375,-0.99835205078125,-0.09027099609375,3.65447998046875,-3.73077392578125,-1.88446044921875,-0.493408203125,0.4537353515625,0.2572021484375,11,0,57
2,24,3,34895,180,0.0228271484375,-0.99835205078125,-0.09027099609375,3.65447998046875,-3.73077392578125,-1.88446044921875,-0.4952392578125,0.4593505859375,0.250732421875,11,0,108
2,24,1,34896,180,-0.2530517578125,0.919677734375,-0.26715087890625,4.180908203125,-7.51495361328125,0.335693359375,-0.0694580078125,-0.3126220703125,0.0225830078125,11,0,228
2,24,1,34947,181,-0.24969482421875,0.91741943359375,-0.270751953125,4.0435791015625,-9.674072265625,0.75531005859375,-0.0692138671875,-0.3162841796875,0.021484375,11,0,235
2,24,3,34949,181,0.0313720703125,-1.0025634765625,-0.09564208984375,3.35693359375,-3.570556640625,-1.4495849609375,-0.494140625,0.455810546875,0.2552490234375,11,0,156
2,24,1,34999,182,-0.2440185546875,0.911865234375,-0.26947021484375,3.91387939453125,-10.4217529296875,0.9918212890625,-0.06884765625,-0.3167724609375,0.024169921875,11,0,65
2,24,3,35000,182,0.0262451171875,-0.9984130859375,-0.09014892578125,2.960205078125,-3.1890869140625,-0.96893310546875,-0.4971923828125,0.459228515625,0.25830078125,11,0,173
2,24,1,35053,183,-0.2440185546875,0.911865234375,-0.26947021484375,3.91387939453125,-10.4217529296875,0.9918212890625,-0.068603515625,-0.3155517578125,0.013427734375,11,0,213
2,24,3,35054,183,0.0262451171875,-0.9984130859375,-0.09014892578125,2.960205078125,-3.1890869140625,-0.96893310546875,-0.4954833984375,0.4552001953125,0.2540283203125,11,0,225
2,24,1,35103,184,-0.243408203125,0.912841796875,-0.26934814453125,3.82232666015625,-10.01739501953125,0.98419189453125,-0.0692138671875,-0.31494140625,0.014892578125,11,0,76
2,24,3,35104,184,0.00836181640625,-0.99725341796875,-0.1009521484375,2.3651123046875,-2.55584716796875,-0.4730224609375,-0.4935302734375,0.4580078125,0.258056640625,11,0,254
2,24,1,35155,185,-0.24615478515625,0.91497802734375,-0.26678466796875,3.875732421875,-8.819580078125,0.84686279296875,-0.0721435546875,-0.3118896484375,0.0179443359375,11,0,176
2,24,3,35159,185,0.0191650390625,-1.0006103515625,-0.10076904296875,1.9073486328125,-2.3193359375,-1.80816650390625,-0.4954833984375,0.456787109375,0.251953125,11,0,83
2,24,1,35208,186,-0.2471923828125,0.916015625,-0.267822265625,3.90625,-8.1634521484375,0.6866455078125,-0.0716552734375,-0.3143310546875,0.0164794921875,11,0,170
2,24,3,35213,186,0.0191650390625,-1.0006103515625,-0.10076904296875,1.9073486328125,-2.3193359375,-1.80816650390625,-0.4947509765625,0.4559326171875,0.2530517578125,11,0,252
2,24,3,35262,187,0.03173828125,-1.0020751953125,-0.0985107421875,1.9989013671875,-2.99072265625,-3.47137451171875,-0.49755859375,0.4556884765625,0.2548828125,11,0,130
2,24,1,35263,187,-0.2471923828125,0.916015625,-0.267822265625,3.90625,-8.1634521484375,0.6866455078125,-0.0684814453125,-0.3154296875,0.0118408203125,11,0,196
2,24,3,35315,188,0.03448486328125,-1.00225830078125,-0.103759765625,1.8768310546875,-4.2724609375,-4.6539306640625,-0.4952392578125,0.4580078125,0.2552490234375,11,0,96
2,24,1,35320,188,-0.24566650390625,0.91473388671875,-0.27093505859375,3.936767578125,-7.110595703125,0.396728515625,-0.0703125,-0.316162109375,0.0123291015625,11,0,112
2,24,3,35366,189,0.03448486328125,-1.00225830078125,-0.103759765625,1.8768310546875,-4.2724609375,-4.6539306640625,-0.4940185546875,0.4564208984375,0.2559814453125,11,0,111
2,24,1,35367,189,-0.24566650390625,0.91473388671875,-0.27093505859375,3.936767578125,-7.110595703125,0.396728515625,-0.07373046875,-0.31396484375,0.013916015625,11,0,44
2,24,1,35424,190,-0.24761962890625,0.91552734375,-0.2684326171875,4.14276123046875,-6.011962890625,0.0,-0.0689697265625,-0.314697265625,0.014404296875,11,0,78
2,24,3,35425,190,0.01593017578125,-0.9945068359375,-0.10162353515625,1.6632080078125,-4.43267822265625,-4.85992431640625,-0.49560546875,0.4576416015625,0.25830078125,11,0,70
2,24,3,35470,191,0.0289306640625,-0.998779296875,-0.123046875,1.35040283203125,-3.39508056640625,-5.3863525390625,-0.4964599609375,0.455078125,0.2532958984375,11,0,196
2,24,1,35471,191,-0.24530029296875,0.91387939453125,-0.27008056640625,4.00543212890625,-5.01251220703125,-0.5035400390625,-0.0712890625,-0.3170166015625,0.020751953125,11,0,152
2,24,3,35525,192,0.0289306640625,-0.998779296875,-0.123046875,1.35040283203125,-3.39508056640625,-5.3863525390625,-0.4935302734375,0.4571533203125,0.2625732421875,11,0,228
2,24,1,35526,192,-0.24530029296875,0.91387939453125,-0.27008056640625,4.00543212890625,-5.01251220703125,-0.5035400390625,-0.072265625,-0.314697265625,0.015869140625,11,0,165
2,24,1,35580,193,-0.25677490234375,0.92596435546875,-0.2672119140625,3.88336181640625,-3.70025634765625,-1.07574462890625,-0.072998046875,-0.3135986328125,0.011962890625,11,0,141
2,24,3,35581,193,0.04541015625,-1.00439453125,-0.10638427734375,-1.6937255859375,4.75311279296875,-3.21197509765625,-0.4959716796875,0.4468994140625,0.271240234375,11,0,194
2,24,1,35629,194,-0.25244140625,0.91217041015625,-0.25555419921875,3.54766845703125,-3.448486328125,-1.09100341796875,-0.074462890625,-0.3150634765625,0.0120849609375,11,0,147
2,24,3,35636,194,0.04473876953125,-0.9976806640625,-0.11700439453125,-2.0904541015625,6.34765625,-1.5411376953125,-0.5020751953125,0.4520263671875,0.2655029296875,11,0,0
2,24,3,35680,195,0.04473876953125,-0.9976806640625,-0.11700439453125,-2.0904541015625,6.34765625,-1.5411376953125,-0.502197265625,0.4488525390625,0.2633056640625,11,0,101
2,24,1,35682,195,-0.25244140625,0.91217041015625,-0.25555419921875,3.54766845703125,-3.448486328125,-1.09100341796875,-0.071044921875,-0.3153076171875,0.018310546875,11,0,38
2,24,1,35734,196,-0.2379150390625,0.91448974609375,-0.2572021484375,2.28118896484375,-3.3721923828125,-0.9307861328125,-0.072021484375,-0.3138427734375,0.01513671875,11,0,234
2,24,3,35735,196,0.046630859375,-0.996826171875,-0.12091064453125,1.0223388671875,-0.83160400390625,-4.57763671875,-0.5001220703125,0.4508056640625,0.2598876953125,11,0,203
2,24,1,35785,197,-0.25299072265625,0.913818359375,-0.258056640625,2.05230712890625,-1.2054443359375,-1.01470947265625,-0.06884765625,-0.311279296875,0.015625,11,0,174
2,24,3,35789,197,0.05084228515625,-0.99249267578125,-0.1202392578125,1.52587890625,-3.84521484375,-5.65338134765625,-0.50390625,0.4542236328125,0.2618408203125,11,0,91
2,24,1,35838,198,-0.25103759765625,0.91766357421875,-0.2684326171875,2.25830078125,0.0,-1.0223388671875,-0.0732421875,-0.31494140625,0.017822265625,11,0,76
2,24,3,35839,198,0.05084228515625,-0.99249267578125,-0.1202392578125,1.52587890625,-3.84521484375,-5.65338134765625,-0.5048828125,0.4534912109375,0.2625732421875,11,0,94
2,24,3,35891,199,0.05975341796875,-0.9930419921875,-0.12744140625,2.49481201171875,-5.4473876953125,-6.00433349609375,-0.5087890625,0.45068359375,0.2672119140625,11,0,189
2,24,1,35892,199,-0.25103759765625,0.91766357421875,-0.2684326171875,2.25830078125,0.0,-1.0223388671875,-0.07470703125,-0.315673828125,0.0169677734375,11,0,127
2,24,3,35959,200,0.071044921875,-0.99212646484375,-0.11737060546875,2.716064453125,-5.79071044921875,-6.3323974609375,-0.5076904296875,0.4500732421875,0.2633056640625,11,0,209
2,24,1,35960,200,-0.25628662109375,0.92022705078125,-0.26654052734375,2.03704833984375,-0.72479248046875,-1.19781494140625,-0.0740966796875,-0.3167724609375,0.0206298828125,11,0,99
2,24,3,35995,201,0.071044921875,-0.99212646484375,-0.11737060546875,2.716064453125,-5.79071044921875,-6.3323974609375,-0.5030517578125,0.4542236328125,0.2587890625,11,0,189
2,24,1,35996,201,-0.25628662109375,0.92022705078125,-0.26654052734375,2.03704833984375,-0.72479248046875,-1.19781494140625,-0.0699462890625,-0.3165283203125,0.0211181640625,11,0,198
2,24,1,36048,202,-0.25921630859375,0.919189453125,-0.2667236328125,1.739501953125,-0.8544921875,-1.861572265625,-0.0660400390625,-0.3154296875,0.0167236328125,11,0,68
2,24,3,36051,202,0.06414794921875,-0.9923095703125,-0.12689208984375,2.532958984375,-5.4931640625,-4.9591064453125,-0.506591796875,0.4534912109375,0.2635498046875,11,0,202
2,24,1,36100,203,-0.25946044921875,0.91656494140625,-0.26318359375,2.0904541015625,-2.86865234375,-2.3193359375,-0.06640625,-0.3131103515625,0.018798828125,11,0,134
2,24,3,36101,203,0.06768798828125,-0.99273681640625,-0.12689208984375,2.9296875,-4.89044189453125,-3.44085693359375,-0.5091552734375,0.450927734375,0.2657470703125,11,0,145
2,24,1,36175,204,-0.25872802734375,0.91595458984375,-0.26171875,1.77764892578125,-4.14276123046875,-2.22015380859375,-0.0684814453125,-0.3082275390625,0.01708984375,11,0,123
2,24,3,36177,204,0.060791015625,-0.99652099609375,-0.1260986328125,2.7923583984375,-4.364013671875,-2.78472900390625,-0.503662109375,0.4490966796875,0.2578125,11,0,231
2,24,3,36208,205,0.060791015625,-0.99652099609375,-0.1260986328125,2.7923583984375,-4.364013671875,-2.78472900390625,-0.508544921875,0.447021484375,0.2659912109375,11,0,10
2,24,1,36209,205,-0.25872802734375,0.91595458984375,-0.26171875,1.77764892578125,-4.14276123046875,-2.22015380859375,-0.068115234375,-0.31103515625,0.0167236328125,11,0,162
2,24,1,36257,206,-0.25921630859375,0.91387939453125,-0.26055908203125,2.02178955078125,-5.37109375,-1.64794921875,-0.0693359375,-0.313232421875,0.020263671875,11,0,61
2,24,3,36258,206,0.06219482421875,-0.99505615234375,-0.1285400390625,2.52532958984375,-4.15802001953125,-2.5482177734375,-0.5042724609375,0.4490966796875,0.271484375,11,0,57
2,24,3,36310,207,0.06219482421875,-0.99505615234375,-0.1285400390625,2.52532958984375,-4.15802001953125,-2.5482177734375,-0.505615234375,0.4503173828125,0.2642822265625,11,0,81
2,24,1,36311,207,-0.26220703125,0.912353515625,-0.259033203125,2.0904541015625,-5.950927734375,-1.007080078125,-0.070068359375,-0.313720703125,0.0167236328125,11,0,39
2,24,3,36370,208,0.05975341796875,-0.9942626953125,-0.13128662109375,2.4261474609375,-3.72314453125,-2.41851806640625,-0.5054931640625,0.4522705078125,0.264892578125,11,0,64
2,24,1,36372,208,-0.26220703125,0.912353515625,-0.259033203125,2.0904541015625,-5.950927734375,-1.007080078125,-0.068603515625,-0.31396484375,0.0146484375,11,0,74
2,24,1,36414,209,-0.2601318359375,0.9161376953125,-0.2559814453125,2.31170654296875,-6.103515625,-0.5645751953125,-0.0645751953125,-0.3153076171875,0.0164794921875,11,0,17
2,24,3,36416,209,0.0611572265625,-0.9947509765625,-0.12652587890625,2.349853515625,-3.39508056640625,-2.11334228515625,-0.505859375,0.4521484375,0.2659912109375,11,0,183
2,24,1,36470,210,-0.2611083984375,0.91290283203125,-0.255126953125,2.685546875,-6.62994384765625,-0.06866455078125,-0.068115234375,-0.31201171875,0.016845703125,11,0,158
2,24,3,36471,210,0.0611572265625,-0.9947509765625,-0.12652587890625,2.349853515625,-3.39508056640625,-2.11334228515625,-0.505615234375,0.4505615234375,0.2664794921875,11,0,221
2,24,1,36520,211,-0.2611083984375,0.91290283203125,-0.255126953125,2.685546875,-6.62994384765625,-0.06866455078125,-0.0706787109375,-0.3138427734375,0.0098876953125,11,0,13
2,24,3,36521,211,0.06292724609375,-0.9932861328125,-0.12750244140625,2.32696533203125,-3.36456298828125,-2.044677734375,-0.5037841796875,0.451416015625,0.266357421875,11,0,122
2,24,1,36572,212,-0.25665283203125,0.9169921875,-0.25689697265625,2.716064453125,-6.622314453125,0.32806396484375,-0.0677490234375,-0.31494140625,0.01318359375,11,0,228
2,24,3,36573,212,0.0555419921875,-0.9959716796875,-0.13092041015625,2.349853515625,-3.57818603515625,-2.197265625,-0.5018310546875,0.4495849609375,0.267578125,11,0,94
2,24,1,36624,213,-0.2562255859375,0.9163818359375,-0.25341796875,2.8839111328125,-6.4849853515625,0.396728515625,-0.069580078125,-0.314208984375,0.015625,11,0,2
2,24,3,36625,213,0.0555419921875,-0.9959716796875,-0.13092041015625,2.349853515625,-3.57818603515625,-2.197265625,-0.5042724609375,0.449462890625,0.266357421875,11,0,53
2,24,1,36676,214,-0.2562255859375,0.9163818359375,-0.25341796875,2.8839111328125,-6.4849853515625,0.396728515625,-0.067138671875,-0.314208984375,0.0064697265625,11,0,96
2,24,3,36677,214,0.05670166015625,-0.9954833984375,-0.1341552734375,2.25067138671875,-3.44085693359375,-2.5177001953125,-0.5101318359375,0.4503173828125,0.2677001953125,11,0,167
2,24,1,36733,215,-0.255859375,0.9163818359375,-0.253662109375,2.8228759765625,-5.69915771484375,0.518798828125,-0.07080078125,-0.3134765625,0.0137939453125,11,0,51
2,24,3,36734,215,0.06134033203125,-0.993408203125,-0.13446044921875,2.26593017578125,-3.18145751953125,-2.6092529296875,-0.510986328125,0.4512939453125,0.265869140625,11,0,86
2,24,3,36781,216,0.06134033203125,-0.993408203125,-0.13446044921875,2.26593017578125,-3.18145751953125,-2.6092529296875,-0.509765625,0.4443359375,0.2646484375,11,0,199
2,24,1,36786,216,-0.25665283203125,0.91796875,-0.253662109375,2.8228759765625,-5.1116943359375,0.31280517578125,-0.0721435546875,-0.3160400390625,0.008544921875,11,0,82
2,24,1,36838,217,-0.25665283203125,0.91796875,-0.253662109375,2.3345947265625,-5.1116943359375,0.31280517578125,-0.0728759765625,-0.3121337890625,0.0091552734375,11,0,214
2,24,3,36839,217,0.06170654296875,-0.99365234375,-0.13433837890625,2.49481201171875,-3.62396240234375,-3.08990478515625,-0.51123046875,0.451904296875,0.268310546875,11,0,29
2,24,1,36886,218,-0.255615234375,0.9202880859375,-0.250732421875,2.105712890625,-4.58526611328125,-0.20599365234375,-0.0665283203125,-0.3154296875,0.0111083984375,11,0,119
2,24,3,36887,218,0.06060791015625,-0.99298095703125,-0.1353759765625,2.73895263671875,-3.9825439453125,-2.9449462890625,-0.5107421875,0.4490966796875,0.26611328125,11,0,195
2,24,3,36937,219,0.06060791015625,-0.99298095703125,-0.1353759765625,2.73895263671875,-3.9825439453125,-2.9449462890625,-0.50732421875,0.4453125,0.265625,11,0,80
2,24,1,36940,219,-0.2569580078125,0.91790771484375,-0.24957275390625,1.86920166015625,-3.79180908203125,-0.63323974609375,-0.06982421875,-0.3153076171875,0.0052490234375,11,0,227
2,24,1,36991,220,-0.2569580078125,0.91790771484375,-0.24957275390625,1.86920166015625,-3.79180908203125,-0.63323974609375,-0.072509765625,-0.3145751953125,0.0135498046875,11,0,85
2,24,3,36992,220,0.05364990234375,-0.99163818359375,-0.1383056640625,2.89154052734375,-3.90625,-3.08990478515625,-0.5079345703125,0.4437255859375,0.266357421875,11,0,133
2,24,1,37045,221,-0.25830078125,0.92120361328125,-0.24658203125,1.79290771484375,-3.31878662109375,-0.87738037109375,-0.0712890625,-0.3173828125,0.013671875,11,0,9
2,24,3,37050,221,0.0687255859375,-0.993408203125,-0.13623046875,2.96783447265625,-3.22723388671875,-3.33404541015625,-0.5106201171875,0.447998046875,0.2725830078125,11,0,85
2,24,1,37097,222,-0.25811767578125,0.91534423828125,-0.2447509765625,1.8157958984375,-3.3416748046875,-0.77056884765625,-0.07373046875,-0.3162841796875,0.0126953125,11,0,46
2,24,3,37098,222,0.0687255859375,-0.993408203125,-0.13623046875,2.96783447265625,-3.22723388671875,-3.33404541015625,-0.5098876953125,0.4466552734375,0.2681884765625,11,0,244
2,24,1,37148,223,-0.25811767578125,0.91534423828125,-0.2447509765625,1.8157958984375,-3.3416748046875,-0.77056884765625,-0.0728759765625,-0.315673828125,0.0059814453125,11,0,100
2,24,3,37150,223,0.06610107421875,-0.991943359375,-0.13238525390625,3.21197509765625,-2.9296875,-3.021240234375,-0.5093994140625,0.447265625,0.2684326171875,11,0,69
2,24,1,37200,224,-0.2559814453125,0.91949462890625,-0.2415771484375,1.64031982421875,-3.3721923828125,-0.72479248046875,-0.0687255859375,-0.3162841796875,0.008056640625,11,0,50
2,24,3,37202,224,0.0606689453125,-0.99444580078125,-0.13507080078125,3.3416748046875,-3.12042236328125,-2.87628173828125,-0.507568359375,0.4490966796875,0.2659912109375,11,0,32
2,24,1,37254,225,-0.2548828125,0.91961669921875,-0.2408447265625,2.02178955078125,-3.2958984375,-0.78582763671875,-0.0689697265625,-0.3134765625,0.012939453125,11,0,21
2,24,3,37255,225,0.0606689453125,-0.99444580078125,-0.13507080078125,3.3416748046875,-3.12042236328125,-2.87628173828125,-0.5084228515625,0.444580078125,0.2677001953125,11,0,144
2,24,1,37306,226,-0.2548828125,0.91961669921875,-0.2408447265625,2.02178955078125,-3.2958984375,-0.78582763671875,-0.0712890625,-0.3148193359375,0.0074462890625,11,0,219
2,24,3,37306,226,0.066650390625,-0.99273681640625,-0.13323974609375,3.41033935546875,-3.48663330078125,-3.04412841796875,-0.5076904296875,0.446044921875,0.26318359375,11,0,192
2,24,3,37357,227,0.06396484375,-0.99365234375,-0.12811279296875,3.48663330078125,-3.18145751953125,-2.9449462890625,-0.507568359375,0.447998046875,0.2696533203125,11,0,176
2,24,1,37358,227,-0.25567626953125,0.919189453125,-0.24053955078125,2.50244140625,-3.4637451171875,-0.67901611328125,-0.0704345703125,-0.3138427734375,0.0145263671875,11,0,35
2,24,3,37409,228,0.06396484375,-0.99365234375,-0.12811279296875,3.48663330078125,-3.18145751953125,-2.9449462890625,-0.50927734375,0.4483642578125,0.2689208984375,11,0,185
2,24,1,37412,228,-0.25665283203125,0.91961669921875,-0.24407958984375,2.86102294921875,-3.66973876953125,-0.4119873046875,-0.0726318359375,-0.3153076171875,0.01123046875,11,0,168
2,24,1,37462,229,-0.25665283203125,0.91961669921875,-0.24407958984375,2.86102294921875,-3.66973876953125,-0.4119873046875,-0.0704345703125,-0.3172607421875,0.012939453125,11,0,106
2,24,3,37463,229,0.06524658203125,-0.99365234375,-0.1307373046875,3.570556640625,-3.77655029296875,-2.79998779296875,-0.510009765625,0.443603515625,0.2628173828125,11,0,182
2,24,1,37514,230,-0.2540283203125,0.921630859375,-0.24249267578125,3.0517578125,-4.058837890625,-0.37384033203125,-0.072021484375,-0.3172607421875,0.0111083984375,11,0,136
2,24,3,37515,230,0.0655517578125,-0.9947509765625,-0.13092041015625,3.45611572265625,-4.05120849609375,-2.685546875,-0.5079345703125,0.4493408203125,0.2696533203125,11,0,157
2,24,1,37567,231,-0.25439453125,0.920166015625,-0.24542236328125,3.0364990234375,-4.50897216796875,-0.41961669921875,-0.068359375,-0.314208984375,0.0140380859375,11,0,148
2,24,3,37569,231,0.0655517578125,-0.9947509765625,-0.13092041015625,3.45611572265625,-4.05120849609375,-2.685546875,-0.5084228515625,0.4468994140625,0.268310546875,11,0,30
2,24,1,37620,232,-0.25439453125,0.920166015625,-0.24542236328125,3.0364990234375,-4.50897216796875,-0.41961669921875,-0.0687255859375,-0.3173828125,0.0137939453125,11,0,227
2,24,3,37621,232,0.063720703125,-0.9942626953125,-0.1290283203125,3.6773681640625,-4.00543212890625,-2.7008056640625,-0.5103759765625,0.446044921875,0.2650146484375,11,0,92
2,24,3,37671,233,0.06427001953125,-0.99395751953125,-0.1285400390625,3.50189208984375,-4.08172607421875,-2.63214111328125,-0.511962890625,0.446533203125,0.2672119140625,11,0,82
2,24,1,37672,233,-0.253662109375,0.919677734375,-0.24267578125,3.326416015625,-4.98199462890625,-0.26702880859375,-0.0712890625,-0.315673828125,0.0130615234375,11,0,77
2,24,3,37724,234,0.06427001953125,-0.99395751953125,-0.1285400390625,3.50189208984375,-4.08172607421875,-2.63214111328125,-0.511474609375,0.44775390625,0.26318359375,11,0,28
2,24,1,37725,234,-0.2528076171875,0.91796875,-0.24713134765625,3.631591796875,-5.4779052734375,-0.02288818359375,-0.069580078125,-0.316650390625,0.0089111328125,11,0,94
2,24,3,37727,234,0.06427001953125,-0.99395751953125,-0.1285400390625,3.50189208984375,-4.08172607421875,-2.63214111328125,-0.511474609375,0.44775390625,0.26318359375,11,0,213
2,24,3,37781,235,0.06610107421875,-0.99462890625,-0.1298828125,3.24249267578125,-3.936767578125,-2.5177001953125,-0.5111083984375,0.4512939453125,0.26123046875,11,0,121
2,24,1,37782,235,-0.2528076171875,0.91796875,-0.24713134765625,3.631591796875,-5.4779052734375,-0.02288818359375,-0.0718994140625,-0.316162109375,0.0057373046875,11,0,17
2,24,3,37829,236,0.06494140625,-0.9942626953125,-0.12603759765625,3.12042236328125,-3.7841796875,-2.25830078125,-0.5130615234375,0.4488525390625,0.2677001953125,11,0,234
2,24,1,37830,236,-0.24884033203125,0.92181396484375,-0.24517822265625,4.1656494140625,-5.767822265625,0.02288818359375,-0.07763671875,-0.315673828125,0.009765625,11,0,11
2,24,3,37889,237,0.06494140625,-0.9942626953125,-0.12603759765625,3.12042236328125,-3.7841796875,-2.25830078125,-0.5147705078125,0.4454345703125,0.26416015625,11,0,0
2,24,1,37890,237,-0.25006103515625,0.9185791015625,-0.248291015625,4.43267822265625,-5.706787109375,-0.03814697265625,-0.0755615234375,-0.3162841796875,0.013671875,11,0,39
2,24,1,37934,238,-0.25006103515625,0.9185791015625,-0.248291015625,4.43267822265625,-5.706787109375,-0.03814697265625,-0.07666015625,-0.31689453125,0.0103759765625,11,0,30
2,24,3,37937,238,0.06683349609375,-0.9935302734375,-0.12628173828125,3.05938720703125,-4.0283203125,-2.44140625,-0.51220703125,0.4432373046875,0.264892578125,11,0,17
2,24,3,37987,239,0.06597900390625,-0.9937744140625,-0.12799072265625,3.12042236328125,-4.2266845703125,-2.5634765625,-0.513671875,0.4471435546875,0.2677001953125,11,0,38
2,24,1,37988,239,-0.25128173828125,0.92144775390625,-0.24871826171875,4.41741943359375,-5.36346435546875,-0.1678466796875,-0.0736083984375,-0.31884765625,0.00927734375,11,0,253
2,24,1,38040,240,-0.250244140625,0.91943359375,-0.251953125,4.3792724609375,-5.157470703125,-0.4730224609375,-0.0689697265625,-0.31689453125,0.005615234375,11,0,189
2,24,3,38041,240,0.06597900390625,-0.9937744140625,-0.12799072265625,3.12042236328125,-4.2266845703125,-2.5634765625,-0.5111083984375,0.445068359375,0.270751953125,11,0,128
2,24,1,38089,241,-0.250244140625,0.91943359375,-0.251953125,4.3792724609375,-5.157470703125,-0.4730224609375,-0.0697021484375,-0.3182373046875,0.0084228515625,11,0,21
2,24,3,38090,241,0.05816650390625,-0.99578857421875,-0.1285400390625,3.21197509765625,-4.49371337890625,-2.6702880859375,-0.5152587890625,0.4495849609375,0.2672119140625,11,0,185
2,24,3,38141,242,0.06378173828125,-0.99554443359375,-0.12713623046875,3.10516357421875,-4.6234130859375,-2.66265869140625,-0.5137939453125,0.453125,0.264404296875,11,0,185
2,24,1,38143,242,-0.25146484375,0.92236328125,-0.252197265625,4.20379638671875,-5.11932373046875,-0.57220458984375,-0.0684814453125,-0.3206787109375,0.01171875,11,0,101
2,24,3,38193,243,0.06378173828125,-0.99554443359375,-0.12713623046875,3.10516357421875,-4.6234130859375,-2.66265869140625,-0.512451171875,0.4498291015625,0.262451171875,11,0,113
2,24,1,38198,243,-0.25311279296875,0.9183349609375,-0.254638671875,3.73077392578125,-4.7454833984375,-0.72479248046875,-0.0711669921875,-0.318603515625,0.010498046875,11,0,224
2,24,3,38246,244,0.06573486328125,-0.99444580078125,-0.13116455078125,2.7618408203125,-4.852294921875,-2.79998779296875,-0.5147705078125,0.4500732421875,0.268310546875,11,0,255
2,24,1,38247,244,-0.25311279296875,0.9183349609375,-0.254638671875,3.73077392578125,-4.7454833984375,-0.72479248046875,-0.0726318359375,-0.3201904296875,0.013916015625,11,0,14
2,24,1,38297,245,-0.25189208984375,0.91986083984375,-0.254638671875,3.66973876953125,-4.8065185546875,-0.732421875,-0.072509765625,-0.3162841796875,0.015869140625,11,0,246
2,24,3,38298,245,0.062744140625,-0.99530029296875,-0.1268310546875,2.7313232421875,-4.7760009765625,-2.5787353515625,-0.5120849609375,0.45068359375,0.27001953125,11,0,100
2,24,3,38350,246,0.062744140625,-0.99530029296875,-0.1268310546875,2.7313232421875,-4.7760009765625,-2.5787353515625,-0.51123046875,0.4517822265625,0.2646484375,11,0,60
2,24,1,38359,246,-0.2547607421875,0.916015625,-0.2540283203125,3.6163330078125,-4.4097900390625,-0.8087158203125,-0.0731201171875,-0.318115234375,0.0123291015625,11,0,0
2,24,3,38401,247,0.06561279296875,-0.9942626953125,-0.13018798828125,2.532958984375,-4.8675537109375,-2.777099609375,-0.51171875,0.4482421875,0.26416015625,11,0,85
2,24,1,38406,247,-0.2547607421875,0.916015625,-0.2540283203125,3.6163330078125,-4.4097900390625,-0.8087158203125,-0.071533203125,-0.3140869140625,0.0157470703125,11,0,105
2,24,3,38454,248,0.0570068359375,-0.9931640625,-0.13250732421875,2.41851806640625,-4.913330078125,-2.73895263671875,-0.5120849609375,0.4488525390625,0.2667236328125,11,0,77
2,24,1,38455,248,-0.253662109375,0.91766357421875,-0.25836181640625,3.63922119140625,-4.18853759765625,-0.823974609375,-0.07177734375,-0.31787109375,0.0167236328125,11,0,177
2,24,3,38506,249,0.0570068359375,-0.9931640625,-0.13250732421875,2.41851806640625,-4.913330078125,-2.73895263671875,-0.5091552734375,0.4462890625,0.268798828125,11,0,37
2,24,1,38509,249,-0.2584228515625,0.9151611328125,-0.255859375,3.60870361328125,-3.91387939453125,-0.84686279296875,-0.0693359375,-0.3134765625,0.0155029296875,11,0,82
2,24,3,38559,250,0.06640625,-0.9952392578125,-0.13226318359375,2.4871826171875,-4.9591064453125,-2.685546875,-0.5108642578125,0.4495849609375,0.263916015625,11,0,65
2,24,1,38561,250,-0.2584228515625,0.9151611328125,-0.255859375,3.60870361328125,-3.91387939453125,-0.84686279296875,-0.0740966796875,-0.313720703125,0.0128173828125,11,0,88
2,24,1,38610,251,-0.25927734375,0.917724609375,-0.258056640625,3.72314453125,-4.241943359375,-0.80108642578125,-0.0712890625,-0.31640625,0.0174560546875,11,0,15
2,24,3,38613,251,0.06182861328125,-0.99530029296875,-0.13330078125,2.62451171875,-4.72259521484375,-2.66265869140625,-0.5126953125,0.44677734375,0.2635498046875,11,0,181
2,24,3,38663,252,0.06182861328125,-0.99530029296875,-0.13330078125,2.62451171875,-4.72259521484375,-2.66265869140625,-0.509521484375,0.4501953125,0.264404296875,11,0,203
2,24,1,38664,252,-0.25872802734375,0.91748046875,-0.2601318359375,3.47900390625,-4.3487548828125,-0.70953369140625,-0.0728759765625,-0.3167724609375,0.0179443359375,11,0,44
2,24,3,38715,253,0.0660400390625,-0.99334716796875,-0.1328125,2.49481201171875,-4.3487548828125,-2.70843505859375,-0.5113525390625,0.44580078125,0.26611328125,11,0,171
2,24,1,38716,253,-0.25872802734375,0.91748046875,-0.2601318359375,3.47900390625,-4.3487548828125,-0.70953369140625,-0.072509765625,-0.3155517578125,0.0166015625,11,0,82
2,24,1,38770,254,-0.25860595703125,0.91619873046875,-0.25823974609375,3.48663330078125,-4.5623779296875,-0.4425048828125,-0.0733642578125,-0.3143310546875,0.017578125,11,0,239
2,24,3,38771,254,0.06365966796875,-0.9935302734375,-0.13214111328125,2.41851806640625,-4.425048828125,-2.4261474609375,-0.510498046875,0.4490966796875,0.264892578125,11,0,134
2,24,3,38824,255,0.06365966796875,-0.9935302734375,-0.13214111328125,2.41851806640625,-4.425048828125,-2.4261474609375,-0.511962890625,0.4482421875,0.268310546875,11,0,171
2,24,1,38825,255,-0.255615234375,0.9171142578125,-0.2587890625,3.31878662109375,-4.730224609375,-0.31280517578125,-0.0733642578125,-0.318603515625,0.0244140625,11,0,44
2,24,3,38871,256,0.06201171875,-0.9931640625,-0.1336669921875,2.54058837890625,-4.47845458984375,-2.37274169921875,-0.5125732421875,0.44677734375,0.2684326171875,11,0,104
2,24,1,38872,256,-0.255615234375,0.9171142578125,-0.2587890625,3.31878662109375,-4.730224609375,-0.31280517578125,-0.0755615234375,-0.3187255859375,0.02099609375,11,0,105
2,24,3,38924,257,0.06243896484375,-0.99359130859375,-0.1351318359375,2.54058837890625,-4.37164306640625,-2.4566650390625,-0.5125732421875,0.446044921875,0.2635498046875,11,0,249
2,24,1,38926,257,-0.2554931640625,0.915771484375,-0.26043701171875,3.082275390625,-4.7149658203125,-0.3509521484375,-0.074462890625,-0.31396484375,0.0167236328125,11,0,224
2,24,1,38980,258,-0.25732421875,0.91650390625,-0.25823974609375,3.1280517578125,-4.7149658203125,-0.41961669921875,-0.0762939453125,-0.3153076171875,0.01953125,11,0,119
2,24,3,38981,258,0.06243896484375,-0.99359130859375,-0.1351318359375,2.54058837890625,-4.37164306640625,-2.4566650390625,-0.5079345703125,0.4464111328125,0.2662353515625,11,0,196
2,24,1,39030,259,-0.25732421875,0.91650390625,-0.25823974609375,3.1280517578125,-4.7149658203125,-0.41961669921875,-0.07421875,-0.3189697265625,0.021484375,11,0,23
2,24,3,39032,259,0.06427001953125,-0.992919921875,-0.137451171875,2.50244140625,-4.180908203125,-2.410888671875,-0.5101318359375,0.4456787109375,0.27099609375,11,0,17
2,24,3,39083,260,0.060791015625,-0.99456787109375,-0.13653564453125,2.57110595703125,-4.37164306640625,-2.31170654296875,-0.509521484375,0.4471435546875,0.271484375,11,0,144
2,24,1,39084,260,-0.25445556640625,0.91632080078125,-0.25885009765625,3.19671630859375,-4.73785400390625,-0.51116943359375,-0.0733642578125,-0.3154296875,0.014892578125,11,0,58
2,24,3,39136,261,0.060791015625,-0.99456787109375,-0.13653564453125,2.57110595703125,-4.37164306640625,-2.31170654296875,-0.5093994140625,0.4488525390625,0.2723388671875,11,0,67
2,24,1,39137,261,-0.25726318359375,0.91461181640625,-0.256591796875,3.1585693359375,-4.47845458984375,-0.6103515625,-0.0721435546875,-0.3165283203125,0.022216796875,11,0,62
2,24,3,39186,262,0.063232421875,-0.99310302734375,-0.13690185546875,2.47955322265625,-4.35638427734375,-2.23541259765625,-0.5118408203125,0.4476318359375,0.27392578125,11,0,193
2,24,1,39187,262,-0.25726318359375,0.91461181640625,-0.256591796875,3.1585693359375,-4.47845458984375,-0.6103515625,-0.0711669921875,-0.3143310546875,0.015869140625,11,0,152
2,24,3,39241,263,0.06182861328125,-0.99224853515625,-0.13763427734375,2.51007080078125,-4.4097900390625,-2.28118896484375,-0.508544921875,0.44677734375,0.267578125,11,0,151
2,24,1,39242,263,-0.25506591796875,0.91436767578125,-0.25933837890625,3.30352783203125,-4.53948974609375,-0.54168701171875,-0.0687255859375,-0.314697265625,0.0177001953125,11,0,203
2,24,3,39291,264,0.06182861328125,-0.99224853515625,-0.13763427734375,2.51007080078125,-4.4097900390625,-2.28118896484375,-0.5098876953125,0.443115234375,0.267578125,11,0,226
2,24,1,39292,264,-0.25738525390625,0.9156494140625,-0.25775146484375,3.2806396484375,-4.1961669921875,-0.67901611328125,-0.07080078125,-0.3157958984375,0.017578125,11,0,110
2,24,1,39345,265,-0.2572021484375,0.915771484375,-0.25872802734375,3.24249267578125,-4.150390625,-0.69427490234375,-0.07080078125,-0.3125,0.017822265625,11,0,36
2,24,3,39346,265,0.0599365234375,-0.9930419921875,-0.139404296875,2.57110595703125,-4.669189453125,-2.28118896484375,-0.5128173828125,0.44384765625,0.273193359375,11,0,63
2,24,3,39396,266,0.0601806640625,-0.9921875,-0.13824462890625,2.78472900390625,-4.638671875,-2.25830078125,-0.51025390625,0.447998046875,0.2684326171875,11,0,50
2,24,1,39397,266,-0.2572021484375,0.915771484375,-0.25872802734375,3.24249267578125,-4.150390625,-0.69427490234375,-0.0728759765625,-0.3148193359375,0.017578125,11,0,212
2,24,3,39448,267,0.0601806640625,-0.9921875,-0.13824462890625,2.78472900390625,-4.638671875,-2.25830078125,-0.5087890625,0.447265625,0.2703857421875,11,0,53
2,24,1,39451,267,-0.2559814453125,0.91510009765625,-0.25830078125,3.0059814453125,-3.9825439453125,-0.80108642578125,-0.0709228515625,-0.3173828125,0.0126953125,11,0,46
2,24,1,39501,268,-0.2559814453125,0.91510009765625,-0.25830078125,3.0059814453125,-3.9825439453125,-0.80108642578125,-0.0699462890625,-0.314453125,0.012939453125,11,0,215
2,24,3,39512,268,0.0616455078125,-0.99560546875,-0.136962890625,3.22723388671875,-4.7607421875,-2.20489501953125,-0.5079345703125,0.4437255859375,0.263427734375,11,0,13
2,24,3,39553,269,0.05682373046875,-0.9935302734375,-0.13916015625,3.2806396484375,-4.70733642578125,-2.5177001953125,-0.5086669921875,0.44580078125,0.2730712890625,11,0,24
2,24,1,39554,269,-0.2567138671875,0.916015625,-0.26031494140625,2.81524658203125,-3.9215087890625,-0.86212158203125,-0.0716552734375,-0.312744140625,0.0123291015625,11,0,137
2,24,1,39609,270,-0.2557373046875,0.91632080078125,-0.2607421875,2.7923583984375,-3.71551513671875,-0.8392333984375,-0.0692138671875,-0.310302734375,0.0147705078125,11,0,19
2,24,3,39610,270,0.05682373046875,-0.9935302734375,-0.13916015625,3.2806396484375,-4.70733642578125,-2.5177001953125,-0.5098876953125,0.4423828125,0.26953125,11,0,166
2,24,3,39658,271,0.0557861328125,-0.9942626953125,-0.1383056640625,2.8533935546875,-4.8065185546875,-2.83050537109375,-0.5084228515625,0.444580078125,0.27001953125,11,0,222
2,24,1,39660,271,-0.2557373046875,0.91632080078125,-0.2607421875,2.7923583984375,-3.71551513671875,-0.8392333984375,-0.0718994140625,-0.3173828125,0.0233154296875,11,0,118
2,24,3,39662,271,0.0557861328125,-0.9942626953125,-0.1383056640625,2.8533935546875,-4.8065185546875,-2.83050537109375,-0.5084228515625,0.444580078125,0.27001953125,11,0,56
2,24,1,39711,272,-0.2572021484375,0.9154052734375,-0.260986328125,2.89154052734375,-3.5552978515625,-0.86212158203125,-0.0738525390625,-0.3155517578125,0.0140380859375,11,0,151
2,24,3,39716,272,0.0557861328125,-0.9942626953125,-0.1383056640625,2.8533935546875,-4.8065185546875,-2.83050537109375,-0.5067138671875,0.4432373046875,0.265625,11,0,237
2,24,3,39762,273,0.05462646484375,-0.99273681640625,-0.1400146484375,2.57110595703125,-4.81414794921875,-2.6092529296875,-0.505126953125,0.4443359375,0.2640380859375,11,0,217
2,24,1,39763,273,-0.2557373046875,0.91510009765625,-0.260009765625,2.79998779296875,-3.53240966796875,-0.93841552734375,-0.0703125,-0.314208984375,0.0247802734375,11,0,167
2,24,3,39815,274,0.055908203125,-0.9920654296875,-0.13916015625,2.685546875,-4.852294921875,-2.38037109375,-0.5069580078125,0.4403076171875,0.259521484375,11,0,59
2,24,1,39821,274,-0.256591796875,0.91436767578125,-0.26214599609375,2.79998779296875,-3.70025634765625,-0.93841552734375,-0.0753173828125,-0.3134765625,0.018798828125,11,0,5
2,24,1,39874,275,-0.256591796875,0.91436767578125,-0.26214599609375,2.70843505859375,-3.70025634765625,-0.93841552734375,-0.0701904296875,-0.317138671875,0.0194091796875,11,0,139
2,24,3,39876,275,0.0565185546875,-0.9925537109375,-0.1402587890625,2.75421142578125,-4.791259765625,-2.1514892578125,-0.5047607421875,0.44189453125,0.26904296875,11,0,59
2,24,3,39920,276,0.0565185546875,-0.9925537109375,-0.1402587890625,2.75421142578125,-4.791259765625,-2.1514892578125,-0.5084228515625,0.442138671875,0.2684326171875,11,0,215
2,24,1,39926,276,-0.26007080078125,0.91741943359375,-0.25970458984375,2.51007080078125,-3.65447998046875,-0.91552734375,-0.074462890625,-0.3175048828125,0.011962890625,11,0,123
2,24,3,39972,277,0.0565185546875,-0.99273681640625,-0.13922119140625,2.4871826171875,-4.730224609375,-2.0904541015625,-0.5047607421875,0.44384765625,0.26904296875,11,0,223
2,24,1,39973,277,-0.2598876953125,0.914794921875,-0.25970458984375,2.55584716796875,-4.05120849609375,-0.79345703125,-0.074462890625,-0.31640625,0.01611328125,11,0,82
2,24,1,40026,278,-0.2598876953125,0.914794921875,-0.25970458984375,2.55584716796875,-4.05120849609375,-0.79345703125,-0.0714111328125,-0.315185546875,0.0098876953125,11,0,89
2,24,3,40028,278,0.0477294921875,-0.9940185546875,-0.1422119140625,3.01361083984375,-7.1868896484375,-2.12860107421875,-0.504638671875,0.44384765625,0.268798828125,11,0,196
2,24,1,40077,279,-0.2596435546875,0.91619873046875,-0.25927734375,2.43377685546875,-4.5318603515625,-0.579833984375,-0.072021484375,-0.3116455078125,0.0174560546875,11,0,168
2,24,3,40078,279,0.0477294921875,-0.9940185546875,-0.1422119140625,3.01361083984375,-7.1868896484375,-2.12860107421875,-0.5040283203125,0.44580078125,0.270751953125,11,0,251
2,24,1,40131,280,-0.25885009765625,0.9171142578125,-0.25970458984375,2.26593017578125,-4.913330078125,-0.58746337890625,-0.0701904296875,-0.317626953125,0.02294921875,11,0,151
2,24,3,40132,280,0.03717041015625,-0.9910888671875,-0.14019775390625,4.7149658203125,-10.528564453125,-3.4942626953125,-0.5057373046875,0.44482421875,0.26708984375,11,0,15
2,24,1,40183,281,-0.25885009765625,0.9171142578125,-0.25970458984375,2.26593017578125,-4.913330078125,-0.58746337890625,-0.0699462890625,-0.3167724609375,0.0135498046875,11,0,6
2,24,3,40184,281,0.0504150390625,-0.99359130859375,-0.1370849609375,3.8909912109375,-7.6904296875,-3.35693359375,-0.50537109375,0.445556640625,0.2701416015625,11,0,125
2,24,1,40238,282,-0.260498046875,0.91644287109375,-0.2589111328125,2.349853515625,-4.61578369140625,-0.6866455078125,-0.074951171875,-0.3416748046875,0.0169677734375,11,0,129
2,24,3,40240,282,0.0504150390625,-0.99359130859375,-0.1370849609375,3.8909912109375,-7.6904296875,-3.35693359375,-0.501953125,0.446533203125,0.2667236328125,11,0,119
2,24,1,40287,283,-0.260498046875,0.91644287109375,-0.2589111328125,2.349853515625,-4.61578369140625,-0.6866455078125,-0.072265625,-0.3135986328125,0.0128173828125,11,0,44
2,24,3,40289,283,0.05462646484375,-0.99310302734375,-0.13970947265625,2.57110595703125,-4.8675537109375,-2.60162353515625,-0.5047607421875,0.44580078125,0.2711181640625,11,0,20
2,24,1,40343,284,-0.2607421875,0.91558837890625,-0.25531005859375,2.349853515625,-4.67681884765625,-0.70953369140625,-0.06982421875,-0.3157958984375,0.0123291015625,11,0,50
2,24,3,40344,284,0.0517578125,-0.99267578125,-0.1397705078125,2.2430419921875,-4.3182373046875,-2.166748046875,-0.501220703125,0.4459228515625,0.27197265625,11,0,218
2,24,3,40393,285,0.0517578125,-0.99267578125,-0.1397705078125,2.2430419921875,-4.3182373046875,-2.166748046875,-0.5008544921875,0.44384765625,0.2698974609375,11,0,131
2,24,1,40396,285,-0.2574462890625,0.91680908203125,-0.253662109375,2.28118896484375,-5.11932373046875,-0.51116943359375,-0.068603515625,-0.314208984375,0.0108642578125,11,0,182
2,24,3,40444,286,0.0518798828125,-0.99188232421875,-0.13916015625,2.46429443359375,-4.78363037109375,-2.46429443359375,-0.500244140625,0.4423828125,0.2674560546875,11,0,133
2,24,1,40445,286,-0.258056640625,0.91595458984375,-0.25408935546875,2.34222412109375,-5.31768798828125,-0.31280517578125,-0.067626953125,-0.3118896484375,0.01611328125,11,0,129
2,24,3,40446,286,0.0518798828125,-0.99188232421875,-0.13916015625,2.46429443359375,-4.78363037109375,-2.46429443359375,-0.500244140625,0.4423828125,0.2674560546875,11,0,246
2,24,1,40496,287,-0.258056640625,0.91595458984375,-0.25408935546875,2.34222412109375,-5.31768798828125,-0.31280517578125,-0.0662841796875,-0.3116455078125,0.0166015625,11,0,54
2,24,3,40497,287,0.04803466796875,-0.9935302734375,-0.14288330078125,2.227783203125,-4.7454833984375,-2.3956298828125,-0.501708984375,0.4473876953125,0.2691650390625,11,0,189
2,24,1,40548,288,-0.25726318359375,0.915771484375,-0.25347900390625,2.76947021484375,-5.340576171875,-0.34332275390625,-0.070556640625,-0.314208984375,0.010009765625,11,0,203
2,24,3,40549,288,0.04803466796875,-0.9935302734375,-0.14288330078125,2.227783203125,-4.7454833984375,-2.3956298828125,-0.499755859375,0.4443359375,0.2757568359375,11,0,147
2,24,1,40601,289,-0.25543212890625,0.91778564453125,-0.2537841796875,3.0670166015625,-5.31768798828125,-0.396728515625,-0.0751953125,-0.3155517578125,0.0198974609375,11,0,62
2,24,3,40602,289,0.04998779296875,-0.99346923828125,-0.14459228515625,2.0599365234375,-4.638671875,-2.4871826171875,-0.4974365234375,0.4456787109375,0.269287109375,11,0,115
2,24,3,40654,290,0.04974365234375,-0.99169921875,-0.14593505859375,1.47247314453125,-3.8909912109375,-2.38037109375,-0.501953125,0.4400634765625,0.2685546875,11,0,182
2,24,1,40658,290,-0.25543212890625,0.91778564453125,-0.2537841796875,3.0670166015625,-5.31768798828125,-0.396728515625,-0.0716552734375,-0.3145751953125,0.0184326171875,11,0,11
2,24,1,40705,291,-0.25665283203125,0.9161376953125,-0.2525634765625,3.204345703125,-5.1116943359375,-0.40435791015625,-0.0703125,-0.3172607421875,0.0140380859375,11,0,188
2,24,3,40706,291,0.04974365234375,-0.99169921875,-0.14593505859375,1.47247314453125,-3.8909912109375,-2.38037109375,-0.5064697265625,0.4429931640625,0.2689208984375,11,0,121
2,24,3,40762,292,0.0478515625,-0.99188232421875,-0.14874267578125,0.81634521484375,-3.35693359375,-2.17437744140625,-0.5028076171875,0.4429931640625,0.2744140625,11,0,140
2,24,1,40763,292,-0.255859375,0.91925048828125,-0.25115966796875,3.3416748046875,-4.974365234375,-0.3814697265625,-0.0706787109375,-0.3179931640625,0.012451171875,11,0,140
2,24,1,40809,293,-0.255859375,0.91925048828125,-0.25115966796875,3.3416748046875,-4.974365234375,-0.3814697265625,-0.0716552734375,-0.313232421875,0.0147705078125,11,0,114
2,24,3,40810,293,0.04339599609375,-0.98541259765625,-0.15374755859375,0.457763671875,-2.6397705078125,-1.983642578125,-0.5045166015625,0.4429931640625,0.2781982421875,11,0,226
2,24,3,40868,294,0.04339599609375,-0.98541259765625,-0.15374755859375,0.457763671875,-2.6397705078125,-1.983642578125,-0.501708984375,0.43896484375,0.2725830078125,11,0,199
2,24,1,40869,294,-0.25634765625,0.91534423828125,-0.2518310546875,3.4637451171875,-5.0506591796875,-0.396728515625,-0.0694580078125,-0.3126220703125,0.0133056640625,11,0,53
2,24,1,40916,295,-0.25799560546875,0.9195556640625,-0.25030517578125,3.3111572265625,-4.53948974609375,-0.58746337890625,-0.071533203125,-0.314208984375,0.0189208984375,11,0,131
2,24,3,40917,295,0.04620361328125,-0.98907470703125,-0.15692138671875,0.11444091796875,-0.1220703125,-1.3275146484375,-0.5050048828125,0.4417724609375,0.2740478515625,11,0,30
2,24,3,40967,296,0.04840087890625,-0.9873046875,-0.1617431640625,0.54931640625,-0.9918212890625,-1.64794921875,-0.50634765625,0.43896484375,0.2762451171875,11,0,65
2,24,1,40968,296,-0.25799560546875,0.9195556640625,-0.25030517578125,3.3111572265625,-4.53948974609375,-0.58746337890625,-0.0736083984375,-0.31494140625,0.02001953125,11,0,11
2,24,1,41020,297,-0.25701904296875,0.9158935546875,-0.25079345703125,3.07464599609375,-4.20379638671875,-0.9307861328125,-0.0728759765625,-0.3135986328125,0.01025390625,11,0,79
2,24,3,41021,297,0.04840087890625,-0.9873046875,-0.1617431640625,0.54931640625,-0.9918212890625,-1.64794921875,-0.505126953125,0.437255859375,0.2796630859375,11,0,191
2,24,3,41071,298,0.04840087890625,-0.9896240234375,-0.1619873046875,1.373291015625,-2.92205810546875,-2.50244140625,-0.504638671875,0.4388427734375,0.2808837890625,11,0,22
2,24,1,41072,298,-0.25701904296875,0.917236328125,-0.25067138671875,2.89154052734375,-3.79180908203125,-0.9765625,-0.0732421875,-0.314453125,0.0152587890625,11,0,80
2,24,1,41123,299,-0.25701904296875,0.917236328125,-0.25067138671875,2.89154052734375,-3.79180908203125,-0.9765625,-0.0732421875,-0.31298828125,0.01806640625,11,0,217
2,24,3,41124,299,0.04840087890625,-0.9896240234375,-0.1619873046875,1.373291015625,-2.92205810546875,-2.50244140625,-0.504638671875,0.4403076171875,0.2783203125,11,0,176
2,24,1,41175,300,-0.25885009765625,0.915771484375,-0.25140380859375,2.99835205078125,-3.57818603515625,-0.9002685546875,-0.072509765625,-0.311279296875,0.01416015625,11,0,248
2,24,3,41176,300,0.0509033203125,-0.9984130859375,-0.16510009765625,1.3427734375,-4.09698486328125,-2.90679931640625,-0.50048828125,0.44091796875,0.281005859375,11,0,220
2,24,3,41229,301,0.04779052734375,-0.9873046875,-0.166748046875,1.312255859375,-4.28009033203125,-2.7313232421875,-0.50390625,0.43603515625,0.27685546875,11,0,226
2,24,1,41230,301,-0.25732421875,0.91571044921875,-0.2510986328125,3.1280517578125,-3.4027099609375,-0.9765625,-0.070068359375,-0.3128662109375,0.0213623046875,11,0,169
2,24,1,41282,302,-0.25732421875,0.91571044921875,-0.2510986328125,3.1280517578125,-3.4027099609375,-0.9765625,-0.0703125,-0.3123779296875,0.0169677734375,11,0,102
2,24,3,41284,302,0.04925537109375,-0.9862060546875,-0.171875,1.15966796875,-4.87518310546875,-2.66265869140625,-0.4989013671875,0.440185546875,0.2718505859375,11,0,177
2,24,1,41334,303,-0.258544921875,0.916015625,-0.2540283203125,3.173828125,-3.3111572265625,-0.80108642578125,-0.0679931640625,-0.315673828125,0.009765625,11,0,68
2,24,3,41336,303,0.04925537109375,-0.9862060546875,-0.171875,1.15966796875,-4.87518310546875,-2.66265869140625,-0.5023193359375,0.43798828125,0.27392578125,11,0,249
2,24,3,41389,304,0.045166015625,-0.9866943359375,-0.17742919921875,0.81634521484375,-4.4403076171875,-2.55584716796875,-0.5047607421875,0.43701171875,0.2825927734375,11,0,179
2,24,1,41390,304,-0.25738525390625,0.91717529296875,-0.25604248046875,3.173828125,-2.96783447265625,-0.7781982421875,-0.0709228515625,-0.3148193359375,0.015869140625,11,0,130
2,24,3,41438,305,0.045654296875,-0.9859619140625,-0.1800537109375,0.9002685546875,-3.5247802734375,-2.66265869140625,-0.5045166015625,0.4359130859375,0.2833251953125,11,0,203
2,24,1,41442,305,-0.25738525390625,0.91717529296875,-0.25604248046875,3.173828125,-2.96783447265625,-0.7781982421875,-0.071533203125,-0.31103515625,0.017333984375,11,0,194
2,24,3,41496,306,0.045654296875,-0.9859619140625,-0.1800537109375,0.9002685546875,-3.5247802734375,-2.66265869140625,-0.50244140625,0.43603515625,0.2803955078125,11,0,232
2,24,1,41498,306,-0.25799560546875,0.91705322265625,-0.25592041015625,3.27301025390625,-2.50244140625,-0.91552734375,-0.0692138671875,-0.311279296875,0.015380859375,11,0,60
2,24,1,41543,307,-0.2584228515625,0.915771484375,-0.2587890625,3.2958984375,-1.76239013671875,-1.19781494140625,-0.0703125,-0.3140869140625,0.01416015625,11,0,68
2,24,3,41545,307,0.0479736328125,-0.9857177734375,-0.18359375,0.640869140625,-4.0283203125,-3.27301025390625,-0.501220703125,0.4337158203125,0.28369140625,11,0,166
2,24,1,41594,308,-0.2584228515625,0.915771484375,-0.2587890625,3.2958984375,-1.76239013671875,-1.19781494140625,-0.0714111328125,-0.311767578125,0.01611328125,11,0,126
2,24,3,41595,308,0.0487060546875,-0.98516845703125,-0.18463134765625,0.41961669921875,-4.57763671875,-3.41033935546875,-0.4991455078125,0.430908203125,0.2838134765625,11,0,42
2,24,1,41648,309,-0.25927734375,0.9149169921875,-0.25634765625,3.0517578125,-1.39617919921875,-1.33514404296875,-0.0687255859375,-0.3104248046875,0.021728515625,11,0,142
2,24,3,41649,309,0.0487060546875,-0.98516845703125,-0.18463134765625,0.41961669921875,-4.57763671875,-3.41033935546875,-0.501220703125,0.43310546875,0.2845458984375,11,0,197
2,24,1,41703,310,-0.255859375,0.91448974609375,-0.25970458984375,2.83050537109375,-1.41143798828125,-1.30462646484375,-0.0684814453125,-0.313720703125,0.0213623046875,11,0,169
2,24,3,41704,310,0.05303955078125,-0.9871826171875,-0.19097900390625,0.55694580078125,-4.57000732421875,-3.3111572265625,-0.50048828125,0.431396484375,0.28662109375,11,0,104
2,24,3,41751,311,0.05303955078125,-0.9871826171875,-0.19097900390625,0.55694580078125,-4.57000732421875,-3.3111572265625,-0.5020751953125,0.4312744140625,0.28515625,11,0,111
2,24,1,41752,311,-0.255859375,0.91448974609375,-0.25970458984375,2.83050537109375,-1.41143798828125,-1.30462646484375,-0.0673828125,-0.31201171875,0.027587890625,11,0,223
2,24,3,41804,312,0.0521240234375,-0.99359130859375,-0.19927978515625,0.5645751953125,-4.2266845703125,-3.10516357421875,-0.505126953125,0.4320068359375,0.280029296875,11,0,44
2,24,1,41805,312,-0.26177978515625,0.908447265625,-0.26116943359375,2.40325927734375,-0.8392333984375,-1.53350830078125,-0.0655517578125,-0.30810546875,0.02685546875,11,0,143
2,24,1,41856,313,-0.261474609375,0.9217529296875,-0.2628173828125,2.3956298828125,0.213623046875,-1.89208984375,-0.0677490234375,-0.31103515625,0.018798828125,11,0,105
2,24,3,41859,313,0.04742431640625,-0.97735595703125,-0.19854736328125,0.6561279296875,-4.38690185546875,-3.12042236328125,-0.5037841796875,0.4317626953125,0.28125,11,0,242
2,24,3,41913,314,0.05352783203125,-0.98175048828125,-0.20184326171875,1.13677978515625,-4.41741943359375,-3.7994384765625,-0.5030517578125,0.4310302734375,0.291259765625,11,0,244
2,24,1,41914,314,-0.261474609375,0.9217529296875,-0.2628173828125,2.3956298828125,0.213623046875,-1.89208984375,-0.0712890625,-0.30810546875,0.0201416015625,11,0,117
2,24,1,41961,315,-0.26434326171875,0.9066162109375,-0.269287109375,2.7313232421875,0.00762939453125,-2.05230712890625,-0.0682373046875,-0.30859375,0.017822265625,11,0,24
2,24,3,41962,315,0.05352783203125,-0.98175048828125,-0.20184326171875,1.13677978515625,-4.41741943359375,-3.7994384765625,-0.5023193359375,0.4293212890625,0.285400390625,11,0,105
2,24,3,42015,316,0.09442138671875,-0.97186279296875,-0.20245361328125,1.68609619140625,-4.119873046875,-4.8980712890625,-0.5054931640625,0.432373046875,0.2916259765625,11,0,237
2,24,1,42016,316,-0.2611083984375,0.904052734375,-0.2703857421875,3.18145751953125,0.6866455078125,-2.23541259765625,-0.072998046875,-0.306640625,0.0234375,11,0,77
2,24,1,42066,317,-0.27215576171875,0.92724609375,-0.269287109375,3.6773681640625,1.220703125,-2.50244140625,-0.07080078125,-0.306396484375,0.025146484375,11,0,133
2,24,3,42067,317,0.03155517578125,-0.98968505859375,-0.22039794921875,2.26593017578125,-3.173828125,-6.9122314453125,-0.5081787109375,0.4251708984375,0.2923583984375,11,0,38
2,24,3,42118,318,0.03155517578125,-0.98968505859375,-0.22039794921875,2.26593017578125,-3.173828125,-6.9122314453125,-0.5137939453125,0.4320068359375,0.2890625,11,0,244
2,24,1,42121,318,-0.27215576171875,0.92724609375,-0.269287109375,3.6773681640625,1.220703125,-2.50244140625,-0.070556640625,-0.306884765625,0.0303955078125,11,0,58
2,24,3,42170,319,0.1484375,-0.9818115234375,-0.2017822265625,1.83868408203125,-2.20489501953125,-9.6893310546875,-0.5123291015625,0.4344482421875,0.2869873046875,11,0,246
2,24,1,42171,319,-0.27984619140625,0.93231201171875,-0.26983642578125,2.9296875,0.48828125,-2.288818359375,-0.070556640625,-0.3052978515625,0.031494140625,11,0,27
2,24,1,42225,320,-0.27984619140625,0.93231201171875,-0.26983642578125,2.9296875,0.48828125,-2.288818359375,-0.0721435546875,-0.3077392578125,0.0302734375,11,0,65
2,24,3,42227,320,0.118408203125,-0.9739990234375,-0.19287109375,3.60870361328125,-0.213623046875,-9.01031494140625,-0.5167236328125,0.4293212890625,0.2861328125,11,0,32
2,24,1,42275,321,-0.26336669921875,0.92578125,-0.2359619140625,0.7476806640625,-3.77655029296875,-1.10626220703125,-0.0699462890625,-0.3077392578125,0.0269775390625,11,0,172
2,24,3,42276,321,0.118408203125,-0.9739990234375,-0.19287109375,3.60870361328125,-0.213623046875,-9.01031494140625,-0.5238037109375,0.4320068359375,0.2935791015625,11,0,171
2,24,1,42327,322,-0.2568359375,0.9227294921875,-0.233154296875,-3.326416015625,-6.378173828125,-0.823974609375,-0.0677490234375,-0.30810546875,0.0235595703125,11,0,239
2,24,3,42328,322,0.1156005859375,-0.97772216796875,-0.2017822265625,2.25830078125,2.166748046875,-6.16455078125,-0.5228271484375,0.431396484375,0.2930908203125,11,0,211
2,24,3,42379,323,0.1021728515625,-0.973388671875,-0.20611572265625,0.213623046875,-0.2288818359375,-6.5460205078125,-0.52490234375,0.427734375,0.2862548828125,11,0,235
2,24,1,42380,323,-0.2568359375,0.9227294921875,-0.233154296875,-3.326416015625,-6.378173828125,-0.823974609375,-0.074462890625,-0.30615234375,0.02734375,11,0,179
2,24,1,42432,324,-0.259033203125,0.921630859375,-0.2186279296875,-6.09588623046875,-5.9967041015625,-1.251220703125,-0.071533203125,-0.3106689453125,0.0203857421875,11,0,127
2,24,3,42433,324,0.1021728515625,-0.973388671875,-0.20611572265625,0.213623046875,-0.2288818359375,-6.5460205078125,-0.5267333984375,0.4249267578125,0.297119140625,11,0,231
2,24,1,42485,325,-0.26055908203125,0.9296875,-0.2037353515625,-6.3934326171875,-5.5694580078125,-1.47247314453125,-0.07177734375,-0.3101806640625,0.0172119140625,11,0,208
2,24,3,42490,325,0.1396484375,-0.97491455078125,-0.20843505859375,-0.43487548828125,-2.63214111328125,-6.5765380859375,-0.5255126953125,0.4248046875,0.2962646484375,11,0,104
2,24,3,42541,326,0.1348876953125,-0.971435546875,-0.22271728515625,-0.6561279296875,-4.5166015625,-7.04193115234375,-0.5289306640625,0.4290771484375,0.2996826171875,11,0,240
2,24,1,42543,326,-0.26055908203125,0.9296875,-0.2037353515625,-6.3934326171875,-5.5694580078125,-1.47247314453125,-0.072265625,-0.3052978515625,0.0159912109375,11,0,243
2,24,3,42544,326,0.1348876953125,-0.971435546875,-0.22271728515625,-0.6561279296875,-4.5166015625,-7.04193115234375,-0.5289306640625,0.4290771484375,0.2996826171875,11,0,246
2,24,1,42590,327,-0.26318359375,0.92767333984375,-0.191650390625,-6.378173828125,-4.241943359375,-1.47247314453125,-0.070068359375,-0.302490234375,0.0118408203125,11,0,42
2,24,3,42591,327,0.1348876953125,-0.971435546875,-0.22271728515625,-0.6561279296875,-4.5166015625,-7.04193115234375,-0.528564453125,0.42431640625,0.3013916015625,11,0,42
2,24,3,42641,328,0.17657470703125,-0.9642333984375,-0.218017578125,-1.0528564453125,-4.46319580078125,-7.080078125,-0.529541015625,0.4190673828125,0.2982177734375,11,0,83
2,24,1,42642,328,-0.28118896484375,0.91748046875,-0.179931640625,-6.5460205078125,-3.41796875,-1.8463134765625,-0.06494140625,-0.3114013671875,0.015869140625,11,0,95
2,24,1,42694,329,-0.3115234375,0.9281005859375,-0.17645263671875,-5.0811767578125,-0.823974609375,-3.35693359375,-0.066650390625,-0.305419921875,0.011962890625,11,0,169
2,24,3,42695,329,0.1375732421875,-0.96954345703125,-0.23974609375,-1.3885498046875,-2.471923828125,-7.16400146484375,-0.5322265625,0.4180908203125,0.3009033203125,11,0,97
2,24,1,42747,330,-0.3115234375,0.9281005859375,-0.17645263671875,-5.0811767578125,-0.823974609375,-3.35693359375,-0.065673828125,-0.3055419921875,0.01611328125,11,0,74
2,24,3,42748,330,0.1375732421875,-0.96954345703125,-0.23974609375,-1.3885498046875,-2.471923828125,-7.16400146484375,-0.5321044921875,0.416748046875,0.3001708984375,11,0,225
2,24,1,42798,331,-0.302490234375,0.9259033203125,-0.1787109375,-2.7008056640625,0.67901611328125,-5.401611328125,-0.06494140625,-0.2998046875,0.0096435546875,11,0,161
2,24,3,42799,331,0.1624755859375,-0.96795654296875,-0.23760986328125,1.739501953125,-0.58746337890625,-10.01739501953125,-0.5369873046875,0.41455078125,0.30419921875,11,0,112
2,24,3,42851,332,0.15875244140625,-0.947021484375,-0.21331787109375,8.38470458984375,-5.5389404296875,-15.83099365234375,-0.53857421875,0.4195556640625,0.3045654296875,11,0,36
2,24,1,42852,332,-0.302490234375,0.9259033203125,-0.1787109375,-2.7008056640625,0.67901611328125,-5.401611328125,-0.0615234375,-0.3017578125,0.02001953125,11,0,205
2,24,1,42903,333,-0.31829833984375,0.91375732421875,-0.18902587890625,-2.32696533203125,2.58636474609375,-8.5906982421875,-0.0604248046875,-0.296875,0.0152587890625,11,0,244
2,24,3,42904,333,0.15875244140625,-0.947021484375,-0.21331787109375,8.38470458984375,-5.5389404296875,-15.83099365234375,-0.5426025390625,0.415283203125,0.30126953125,11,0,168
2,24,3,42957,334,0.20361328125,-0.947998046875,-0.18792724609375,11.9781494140625,-8.11004638671875,-15.09857177734375,-0.5440673828125,0.4171142578125,0.3076171875,11,0,137
2,24,1,42958,334,-0.33587646484375,0.8966064453125,-0.20623779296875,-4.6539306640625,5.45501708984375,-10.25390625,-0.0596923828125,-0.2962646484375,0.0164794921875,11,0,152
2,24,1,43009,335,-0.33587646484375,0.8966064453125,-0.20623779296875,-4.6539306640625,5.45501708984375,-10.25390625,-0.0579833984375,-0.293212890625,0.0147705078125,11,0,219
2,24,3,43010,335,0.16900634765625,-0.9696044921875,-0.20880126953125,8.82720947265625,-5.18035888671875,-7.60650634765625,-0.541748046875,0.420166015625,0.300048828125,11,0,99
2,24,3,43061,336,0.16900634765625,-0.9696044921875,-0.20880126953125,8.82720947265625,-5.18035888671875,-7.60650634765625,-0.539794921875,0.4228515625,0.308837890625,11,0,196
2,24,1,43062,336,-0.36962890625,0.9005126953125,-0.2093505859375,-3.79180908203125,2.54058837890625,-7.89642333984375,-0.055419921875,-0.2901611328125,0.01416015625,11,0,200
2,24,1,43113,337,-0.34002685546875,0.8636474609375,-0.2269287109375,-5.584716796875,-4.69970703125,-3.88336181640625,-0.0550537109375,-0.2967529296875,0.0081787109375,11,0,108
2,24,3,43114,337,0.2205810546875,-0.96136474609375,-0.187255859375,9.60540771484375,-2.9296875,-8.636474609375,-0.5411376953125,0.425537109375,0.304931640625,11,0,230
2,24,1,43166,338,-0.36187744140625,0.80029296875,-0.2198486328125,-5.2337646484375,-9.89532470703125,1.40380859375,-0.0577392578125,-0.2957763671875,0.0133056640625,11,0,17
2,24,3,43167,338,0.2205810546875,-0.96136474609375,-0.187255859375,9.60540771484375,-2.9296875,-8.636474609375,-0.5435791015625,0.429931640625,0.30029296875,11,0,148
2,24,1,43218,339,-0.36187744140625,0.80029296875,-0.2198486328125,-5.2337646484375,-9.89532470703125,1.40380859375,-0.056396484375,-0.3011474609375,0.0150146484375,11,0,139
2,24,3,43220,339,0.25714111328125,-0.94244384765625,-0.1827392578125,11.32965087890625,0.091552734375,-8.0108642578125,-0.5477294921875,0.4364013671875,0.2979736328125,11,0,115
2,24,1,43270,340,-0.328125,1.04718017578125,-0.1890869140625,1.51824951171875,-14.73236083984375,8.087158203125,-0.063232421875,-0.3057861328125,0.002685546875,11,0,137
2,24,3,43273,340,0.17413330078125,-1.02227783203125,-0.170166015625,14.33563232421875,1.59454345703125,-9.7198486328125,-0.5538330078125,0.439453125,0.2957763671875,11,0,186
2,24,1,43322,341,-0.2840576171875,0.89837646484375,-0.21466064453125,2.5634765625,-15.1824951171875,10.16998291015625,-0.0650634765625,-0.30517578125,0.0042724609375,11,0,210
2,24,3,43323,341,0.22369384765625,-1.0906982421875,-0.1314697265625,23.36883544921875,8.90350341796875,-28.5797119140625,-0.574951171875,0.4488525390625,0.2852783203125,11,0,65
2,24,3,43377,342,0.22369384765625,-1.0906982421875,-0.1314697265625,23.36883544921875,8.90350341796875,-28.5797119140625,-0.5941162109375,0.452392578125,0.277099609375,11,0,147
2,24,1,43378,342,-0.2840576171875,0.89837646484375,-0.21466064453125,2.5634765625,-15.1824951171875,10.16998291015625,-0.063232421875,-0.3065185546875,0.001220703125,11,0,183
2,24,3,43427,343,0.247314453125,-1.1717529296875,-0.03912353515625,27.008056640625,12.20703125,-53.10821533203125,-0.6309814453125,0.4437255859375,0.2706298828125,11,0,206
2,24,1,43430,343,-0.341552734375,0.99200439453125,-0.0643310546875,6.34765625,-7.659912109375,8.29315185546875,-0.06640625,-0.3084716796875,0.001220703125,11,0,169
2,24,3,43480,344,0.34228515625,-1.41290283203125,0.0191650390625,25.3448486328125,14.5416259765625,-93.32275390625,-0.6708984375,0.422119140625,0.2572021484375,11,0,201
