PacketType,PayloadLen,DeviceID,Timestamp,PacketID,AccelX,AccelY,AccelZ,GyroX,GyroY,GyroZ,MagX,MagY,MagZ,Flags,Battery,CRC
2,24,3,65564,1,0.0,0.0,0.0,0.0,0.0,0.0,0.0,0.0,0.0,3,0,7
2,24,1,65565,1,0.0,0.0,0.0,0.0,0.0,0.0,0.0,0.0,0.0,3,0,227
2,24,3,65616,2,0.0,0.0,0.0,0.0,0.0,0.0,0.0,0.0,0.0,3,0,10
2,24,1,65617,2,0.0,0.0,0.0,0.0,0.0,0.0,0.0,0.0,0.0,3,0,238
2,24,1,65673,3,0.0,0.0,0.0,0.0,0.0,0.0,0.0,0.0,0.0,3,0,76
2,24,3,65674,3,0.0,0.0,0.0,0.0,0.0,0.0,0.0,0.0,0.0,3,0,219
2,24,3,65720,4,0.0,0.0,0.0,0.0,0.0,0.0,0.0,0.0,0.0,3,0,238
2,24,1,65721,4,0.0,0.0,0.0,0.0,0.0,0.0,0.0,0.0,0.0,3,0,10
2,24,3,65773,5,0.0,0.0,0.0,0.0,0.0,0.0,0.0,0.0,0.0,3,0,79
2,24,1,65774,5,0.0,0.0,0.0,0.0,0.0,0.0,0.0,0.0,0.0,3,0,216
2,24,1,65825,6,0.0,0.0,0.0,0.0,0.0,0.0,0.0,0.0,0.0,3,0,182
2,24,3,65830,6,0.0,0.0,0.0,0.0,0.0,0.0,0.0,0.0,0.0,3,0,199
2,24,3,65883,7,0.0,0.0,0.0,0.0,0.0,0.0,0.0,0.0,0.0,3,0,136
2,24,1,65884,7,0.0,0.0,0.0,0.0,0.0,0.0,0.0,0.0,0.0,3,0,249
2,24,3,65931,8,0.0,0.0,0.0,0.0,0.0,0.0,0.0,0.0,0.0,3,0,2
2,24,1,65932,8,0.0,0.0,0.0,0.0,0.0,0.0,0.0,0.0,0.0,3,0,115
2,24,1,65983,9,0.0,0.0,0.0,0.0,0.0,0.0,0.0,0.0,0.0,3,0,40
2,24,3,65984,9,0.0,0.0,0.0,0.0,0.0,0.0,0.0,0.0,0.0,3,0,108
2,24,3,66036,10,0.0,0.0,0.0,0.0,0.0,0.0,0.0,0.0,0.0,3,0,84
2,24,1,66037,10,0.0,0.0,0.0,0.0,0.0,0.0,0.0,0.0,0.0,3,0,176
2,24,3,66088,11,0.0,0.0,0.0,0.0,0.0,0.0,0.0,0.0,0.0,3,0,82
2,24,1,66089,11,0.0,0.0,0.0,0.0,0.0,0.0,0.0,0.0,0.0,3,0,182
2,24,3,66140,12,0.0,0.0,0.0,0.0,0.0,0.0,0.0,0.0,0.0,3,0,184
2,24,1,66141,12,0.0,0.0,0.0,0.0,0.0,0.0,0.0,0.0,0.0,3,0,92
2,24,1,66191,13,0.0,0.0,0.0,0.0,0.0,0.0,0.0,0.0,0.0,3,0,70
2,24,3,66192,13,0.0,0.0,0.0,0.0,0.0,0.0,0.0,0.0,0.0,3,0,109
2,24,3,66243,14,0.0,0.0,0.0,0.0,0.0,0.0,0.0,0.0,0.0,3,0,21
2,24,1,66244,14,0.0,0.0,0.0,0.0,0.0,0.0,0.0,0.0,0.0,3,0,100
2,24,3,66295,15,0.0,0.0,0.0,0.0,0.0,0.0,0.0,0.0,0.0,3,0,97
2,24,1,66300,15,0.0,0.0,0.0,0.0,0.0,0.0,0.0,0.0,0.0,3,0,61
2,24,1,66349,16,0.0,0.0,0.0,0.0,0.0,0.0,0.0,0.0,0.0,3,0,93
2,24,3,66350,16,0.0,0.0,0.0,0.0,0.0,0.0,0.0,0.0,0.0,3,0,202
2,24,3,66399,17,0.0,0.0,0.0,0.0,0.0,0.0,0.0,0.0,0.0,3,0,168
2,24,1,66402,17,0.0,0.0,0.0,0.0,0.0,0.0,0.0,0.0,0.0,3,0,213
2,24,1,66452,18,0.0,0.0,0.0,0.0,0.0,0.0,0.0,0.0,0.0,3,0,64
2,24,3,66453,18,0.0,0.0,0.0,0.0,0.0,0.0,0.0,0.0,0.0,3,0,164
2,24,3,66509,19,0.0,0.0,0.0,0.0,0.0,0.0,0.0,0.0,0.0,3,0,146
2,24,1,66510,19,0.0,0.0,0.0,0.0,0.0,0.0,0.0,0.0,0.0,3,0,5
2,24,3,66557,20,0.0,0.0,0.0,0.0,0.0,0.0,0.0,0.0,0.0,3,0,212
2,24,1,66561,20,0.0,0.0,0.0,0.0,0.0,0.0,0.0,0.0,0.0,3,0,119
2,24,3,66609,21,0.0,0.0,0.0,0.0,0.0,0.0,0.0,0.0,0.0,3,0,187
2,24,1,66614,21,0.0,0.0,0.0,0.0,0.0,0.0,0.0,0.0,0.0,3,0,202
2,24,3,66662,22,0.0,0.0,0.0,0.0,0.0,0.0,0.0,0.0,0.0,3,0,37
2,24,3,66714,23,0.0,0.0,0.0,0.0,0.0,0.0,0.0,0.0,0.0,3,0,68
2,24,1,66715,23,0.0,0.0,0.0,0.0,0.0,0.0,0.0,0.0,0.0,3,0,160
2,24,3,66767,24,0.0,0.0,0.0,0.0,0.0,0.0,0.0,0.0,0.0,3,0,6
2,24,1,66768,24,0.0,0.0,0.0,0.0,0.0,0.0,0.0,0.0,0.0,3,0,45
2,24,1,66820,25,0.0,0.0,0.0,0.0,0.0,0.0,0.0,0.0,0.0,3,0,156
2,24,3,66821,25,0.0,0.0,0.0,0.0,0.0,0.0,0.0,0.0,0.0,3,0,120
2,24,3,66875,26,0.20733642578125,-0.9754638671875,-0.13006591796875,3.1585693359375,-4.302978515625,-2.1820068359375,-0.5374755859375,0.431884765625,0.287841796875,11,0,30
2,24,1,66876,26,-0.27276611328125,0.90899658203125,-0.2723388671875,3.3416748046875,-4.81414794921875,-0.5950927734375,-0.0653076171875,-0.3084716796875,0.012939453125,11,0,174
2,24,3,66926,27,0.20733642578125,-0.9754638671875,-0.13006591796875,3.1585693359375,-4.302978515625,-2.1820068359375,-0.537109375,0.4364013671875,0.2894287109375,11,0,133
2,24,1,66931,27,-0.27508544921875,0.90557861328125,-0.2720947265625,3.1890869140625,-4.3792724609375,-0.8087158203125,-0.066162109375,-0.3057861328125,0.0155029296875,11,0,244
2,24,1,66976,28,-0.27508544921875,0.90557861328125,-0.2720947265625,3.1890869140625,-4.3792724609375,-0.8087158203125,-0.0650634765625,-0.3062744140625,0.009521484375,11,0,16
2,24,3,66977,28,0.2049560546875,-0.9765625,-0.135986328125,3.19671630859375,-4.3182373046875,-2.4261474609375,-0.53662109375,0.4365234375,0.28173828125,11,0,154
2,24,3,67031,29,0.20623779296875,-0.976318359375,-0.1326904296875,3.082275390625,-4.32586669921875,-2.685546875,-0.53955078125,0.434326171875,0.2808837890625,11,0,46
2,24,1,67032,29,-0.2783203125,0.90966796875,-0.2735595703125,3.05938720703125,-3.88336181640625,-0.946044921875,-0.06005859375,-0.307373046875,0.01318359375,11,0,253
2,24,3,67083,30,0.20623779296875,-0.976318359375,-0.1326904296875,3.082275390625,-4.32586669921875,-2.685546875,-0.539794921875,0.435791015625,0.28466796875,11,0,45
2,24,1,67084,30,-0.27691650390625,0.906494140625,-0.2720947265625,3.01361083984375,-3.7994384765625,-0.92315673828125,-0.065185546875,-0.311279296875,0.0184326171875,11,0,231
2,24,3,67133,31,0.2113037109375,-0.97393798828125,-0.13531494140625,2.9449462890625,-4.15802001953125,-3.173828125,-0.5411376953125,0.43359375,0.2833251953125,11,0,78
2,24,1,67136,31,-0.27691650390625,0.906494140625,-0.2720947265625,3.01361083984375,-3.7994384765625,-0.92315673828125,-0.064697265625,-0.311279296875,0.010986328125,11,0,190
2,24,3,67185,32,0.20751953125,-0.9761962890625,-0.130859375,2.90679931640625,-4.1351318359375,-3.15093994140625,-0.5391845703125,0.4324951171875,0.2813720703125,11,0,213
2,24,1,67187,32,-0.2786865234375,0.9075927734375,-0.26837158203125,2.83050537109375,-3.8909912109375,-0.75531005859375,-0.064453125,-0.306640625,0.0181884765625,11,0,139
2,24,3,67238,33,0.20751953125,-0.9761962890625,-0.130859375,2.90679931640625,-4.1351318359375,-3.15093994140625,-0.53955078125,0.4351806640625,0.286376953125,11,0,90
2,24,1,67239,33,-0.2763671875,0.90447998046875,-0.27276611328125,2.899169921875,-4.0740966796875,-0.6561279296875,-0.064208984375,-0.306884765625,0.016845703125,11,0,252
2,24,3,67292,34,0.20751953125,-0.975830078125,-0.13720703125,2.87628173828125,-4.33349609375,-3.24249267578125,-0.538330078125,0.4334716796875,0.2867431640625,11,0,170
2,24,1,67293,34,-0.2763671875,0.90447998046875,-0.27276611328125,2.899169921875,-4.0740966796875,-0.6561279296875,-0.06591796875,-0.30615234375,0.0162353515625,11,0,220
2,24,3,67345,35,0.2086181640625,-0.97625732421875,-0.1328125,2.86865234375,-4.15802001953125,-2.70843505859375,-0.5364990234375,0.4378662109375,0.2801513671875,11,0,255
2,24,1,67346,35,-0.28009033203125,0.9056396484375,-0.26727294921875,3.13568115234375,-4.55474853515625,-0.48065185546875,-0.0611572265625,-0.3087158203125,0.014404296875,11,0,108
2,24,3,67397,36,0.209716796875,-0.9739990234375,-0.129150390625,2.83050537109375,-4.14276123046875,-2.593994140625,-0.5419921875,0.4356689453125,0.2850341796875,11,0,160
2,24,1,67398,36,-0.277587890625,0.90643310546875,-0.271728515625,3.28826904296875,-4.5013427734375,-0.45013427734375,-0.0670166015625,-0.305908203125,0.01953125,11,0,195
2,24,1,67448,37,-0.277587890625,0.90643310546875,-0.271728515625,3.28826904296875,-4.5013427734375,-0.45013427734375,-0.064453125,-0.307861328125,0.015869140625,11,0,176
2,24,3,67449,37,0.209716796875,-0.9739990234375,-0.129150390625,2.83050537109375,-4.14276123046875,-2.593994140625,-0.543212890625,0.4351806640625,0.2884521484375,11,0,207
2,24,3,67501,38,0.20855712890625,-0.97509765625,-0.132568359375,2.9144287109375,-4.1046142578125,-2.31170654296875,-0.54150390625,0.4364013671875,0.285400390625,11,0,137
2,24,1,67503,38,-0.277587890625,0.90533447265625,-0.27093505859375,3.63922119140625,-4.96673583984375,-0.3204345703125,-0.06689453125,-0.3033447265625,0.01220703125,11,0,230
2,24,3,67555,39,0.20855712890625,-0.97509765625,-0.132568359375,2.9144287109375,-4.1046142578125,-2.31170654296875,-0.53955078125,0.4346923828125,0.2828369140625,11,0,183
2,24,1,67556,39,-0.27520751953125,0.9072265625,-0.27288818359375,3.56292724609375,-4.90570068359375,-0.26702880859375,-0.0643310546875,-0.303466796875,0.014404296875,11,0,155
2,24,3,67604,40,0.207275390625,-0.975341796875,-0.1322021484375,2.9449462890625,-4.24957275390625,-2.28118896484375,-0.538330078125,0.438720703125,0.28369140625,11,0,225
2,24,1,67606,40,-0.27520751953125,0.9072265625,-0.27288818359375,3.56292724609375,-4.90570068359375,-0.26702880859375,-0.0640869140625,-0.3072509765625,0.0172119140625,11,0,193
2,24,3,67657,41,0.20489501953125,-0.9766845703125,-0.13397216796875,2.9449462890625,-4.20379638671875,-2.15911865234375,-0.5369873046875,0.4381103515625,0.28564453125,11,0,233
2,24,1,67659,41,-0.27655029296875,0.90667724609375,-0.27276611328125,3.570556640625,-4.7760009765625,-0.41961669921875,-0.0633544921875,-0.303955078125,0.01611328125,11,0,6
2,24,3,67712,42,0.20489501953125,-0.9766845703125,-0.13397216796875,2.9449462890625,-4.20379638671875,-2.15911865234375,-0.54345703125,0.4365234375,0.2847900390625,11,0,99
2,24,1,67713,42,-0.27587890625,0.90948486328125,-0.27532958984375,3.41796875,-4.5013427734375,-0.48065185546875,-0.0606689453125,-0.3095703125,0.0172119140625,11,0,138
2,24,3,67761,43,0.2059326171875,-0.97515869140625,-0.13311767578125,2.9296875,-4.3182373046875,-2.23541259765625,-0.5400390625,0.4383544921875,0.2860107421875,11,0,205
2,24,1,67762,43,-0.27587890625,0.90948486328125,-0.27532958984375,3.41796875,-4.5013427734375,-0.48065185546875,-0.061279296875,-0.30908203125,0.0185546875,11,0,3
2,24,1,67814,44,-0.27557373046875,0.90399169921875,-0.272705078125,3.3111572265625,-4.39453125,-0.49591064453125,-0.0634765625,-0.3106689453125,0.0228271484375,11,0,121
2,24,3,67816,44,0.20703125,-0.9755859375,-0.13494873046875,2.98309326171875,-4.4097900390625,-2.32696533203125,-0.535888671875,0.4349365234375,0.286376953125,11,0,32
2,24,3,67866,45,0.20703125,-0.9755859375,-0.13494873046875,2.98309326171875,-4.4097900390625,-2.32696533203125,-0.5372314453125,0.4375,0.2872314453125,11,0,151
2,24,1,67869,45,-0.27288818359375,0.90740966796875,-0.27142333984375,3.204345703125,-4.1656494140625,-0.63323974609375,-0.06640625,-0.30810546875,0.0172119140625,11,0,23
2,24,3,67919,46,0.2041015625,-0.97796630859375,-0.13482666015625,3.02886962890625,-4.46319580078125,-2.227783203125,-0.539794921875,0.4364013671875,0.2867431640625,11,0,166
2,24,1,67920,46,-0.27288818359375,0.90740966796875,-0.27142333984375,3.204345703125,-4.1656494140625,-0.63323974609375,-0.06298828125,-0.309326171875,0.0194091796875,11,0,20
2,24,3,67981,47,0.2056884765625,-0.97528076171875,-0.13348388671875,3.02886962890625,-4.638671875,-2.38037109375,-0.5400390625,0.4361572265625,0.2921142578125,11,0,176
2,24,1,67982,47,-0.27581787109375,0.906005859375,-0.27801513671875,3.15093994140625,-3.7078857421875,-0.81634521484375,-0.0643310546875,-0.30810546875,0.0220947265625,11,0,158
2,24,3,68023,48,0.2056884765625,-0.97528076171875,-0.13153076171875,3.02886962890625,-4.638671875,-2.38037109375,-0.5406494140625,0.432373046875,0.2845458984375,11,0,138
2,24,1,68024,48,-0.276123046875,0.903564453125,-0.2706298828125,3.18145751953125,-3.91387939453125,-0.8392333984375,-0.0618896484375,-0.30712890625,0.01806640625,11,0,149
2,24,1,68075,49,-0.276123046875,0.903564453125,-0.2706298828125,3.18145751953125,-3.91387939453125,-0.8392333984375,-0.0628662109375,-0.3089599609375,0.017822265625,11,0,157
2,24,3,68076,49,0.206787109375,-0.9749755859375,-0.13153076171875,3.173828125,-4.44793701171875,-2.4871826171875,-0.5367431640625,0.4324951171875,0.281982421875,11,0,54
2,24,3,68129,50,0.20111083984375,-0.97686767578125,-0.12896728515625,3.34930419921875,-4.6234130859375,-2.63214111328125,-0.5340576171875,0.4312744140625,0.284912109375,11,0,103
2,24,1,68130,50,-0.27685546875,0.906494140625,-0.27740478515625,2.9449462890625,-4.20379638671875,-0.84686279296875,-0.067138671875,-0.306640625,0.019287109375,11,0,125
2,24,3,68185,51,0.2059326171875,-0.97607421875,-0.1334228515625,2.92205810546875,-4.6844482421875,-2.44903564453125,-0.537841796875,0.43603515625,0.2845458984375,11,0,241
2,24,1,68186,51,-0.27508544921875,0.90399169921875,-0.27862548828125,3.1890869140625,-4.2572021484375,-0.7171630859375,-0.0650634765625,-0.30908203125,0.0128173828125,11,0,193
2,24,3,68232,52,0.2059326171875,-0.97607421875,-0.1334228515625,2.92205810546875,-4.6844482421875,-2.44903564453125,-0.53955078125,0.4332275390625,0.2872314453125,11,0,22
2,24,1,68233,52,-0.27508544921875,0.90399169921875,-0.27862548828125,3.1890869140625,-4.2572021484375,-0.7171630859375,-0.0633544921875,-0.3045654296875,0.0169677734375,11,0,198
2,24,1,68289,53,-0.27789306640625,0.908203125,-0.27276611328125,3.22723388671875,-4.50897216796875,-0.4425048828125,-0.0648193359375,-0.306884765625,0.01171875,11,0,51
2,24,3,68290,53,0.203125,-0.97808837890625,-0.13427734375,2.7923583984375,-4.730224609375,-2.31170654296875,-0.538818359375,0.433837890625,0.2884521484375,11,0,216
2,24,3,68343,54,0.2025146484375,-0.9765625,-0.13409423828125,2.685546875,-4.64630126953125,-2.28118896484375,-0.5391845703125,0.431640625,0.291748046875,11,0,225
2,24,1,68344,54,-0.27508544921875,0.904296875,-0.27581787109375,3.2806396484375,-5.21087646484375,-0.14495849609375,-0.0648193359375,-0.3052978515625,0.016845703125,11,0,59
2,24,3,68391,55,0.2025146484375,-0.9765625,-0.13409423828125,2.685546875,-4.64630126953125,-2.28118896484375,-0.535888671875,0.43505859375,0.283935546875,11,0,142
2,24,1,68392,55,-0.27508544921875,0.904296875,-0.27581787109375,3.2806396484375,-5.21087646484375,-0.14495849609375,-0.066650390625,-0.3062744140625,0.019775390625,11,0,49
2,24,3,68444,56,0.2037353515625,-0.97625732421875,-0.133056640625,2.76947021484375,-4.89044189453125,-2.4261474609375,-0.5386962890625,0.437255859375,0.284423828125,11,0,226
2,24,1,68447,56,-0.27392578125,0.90545654296875,-0.27362060546875,3.47900390625,-5.401611328125,0.030517578125,-0.0650634765625,-0.30615234375,0.0167236328125,11,0,150
2,24,1,68494,57,-0.27020263671875,0.90570068359375,-0.2755126953125,3.84521484375,-6.06536865234375,0.37384033203125,-0.0634765625,-0.30908203125,0.009033203125,11,0,21
2,24,3,68495,57,0.2037353515625,-0.97625732421875,-0.133056640625,2.76947021484375,-4.89044189453125,-2.4261474609375,-0.5374755859375,0.43701171875,0.2862548828125,11,0,113
2,24,3,68548,58,0.2015380859375,-0.9766845703125,-0.134033203125,2.41851806640625,-4.58526611328125,-2.34222412109375,-0.5350341796875,0.4383544921875,0.2838134765625,11,0,60
2,24,1,68549,58,-0.27020263671875,0.90570068359375,-0.2755126953125,3.84521484375,-6.06536865234375,0.37384033203125,-0.064453125,-0.3096923828125,0.017333984375,11,0,105
2,24,3,68601,59,0.2017822265625,-0.9759521484375,-0.1339111328125,1.77001953125,-4.60052490234375,-2.12860107421875,-0.5390625,0.4365234375,0.28857421875,11,0,232
2,24,1,68602,59,-0.26385498046875,0.90740966796875,-0.27520751953125,4.33349609375,-6.41632080078125,0.87738037109375,-0.0628662109375,-0.306396484375,0.0137939453125,11,0,254
2,24,1,68669,60,-0.26507568359375,0.90618896484375,-0.27325439453125,4.5166015625,-6.67572021484375,0.93841552734375,-0.0667724609375,-0.307861328125,0.009765625,11,0,93
2,24,3,68670,60,0.20098876953125,-0.97552490234375,-0.14080810546875,1.02996826171875,-4.7607421875,-1.678466796875,-0.5341796875,0.4368896484375,0.2972412109375,11,0,198
2,24,3,68707,61,0.20098876953125,-0.97552490234375,-0.14080810546875,1.02996826171875,-4.7607421875,-1.678466796875,-0.53369140625,0.4344482421875,0.290771484375,11,0,193
2,24,1,68709,61,-0.26507568359375,0.90618896484375,-0.27325439453125,4.5166015625,-6.67572021484375,0.93841552734375,-0.0653076171875,-0.3095703125,0.0111083984375,11,0,232
2,24,3,68760,62,0.19415283203125,-0.9779052734375,-0.144775390625,0.75531005859375,-5.18035888671875,-1.617431640625,-0.534912109375,0.4385986328125,0.291259765625,11,0,118
2,24,1,68762,62,-0.26416015625,0.90911865234375,-0.278564453125,4.5013427734375,-6.4239501953125,0.32806396484375,-0.06298828125,-0.3087158203125,0.0179443359375,11,0,206
2,24,1,68808,63,-0.262451171875,0.908203125,-0.275634765625,4.38690185546875,-5.59234619140625,-0.29754638671875,-0.0677490234375,-0.312744140625,0.0111083984375,11,0,44
2,24,3,68809,63,0.19415283203125,-0.979248046875,-0.1494140625,0.75531005859375,-5.18035888671875,-1.617431640625,-0.534912109375,0.43359375,0.297119140625,11,0,92
2,24,3,68864,64,0.1962890625,-0.979248046875,-0.1494140625,0.7476806640625,-5.45501708984375,-1.83868408203125,-0.5335693359375,0.4364013671875,0.2972412109375,11,0,17
2,24,1,68865,64,-0.260009765625,0.91143798828125,-0.278076171875,4.21142578125,-4.85992431640625,-0.48065185546875,-0.0670166015625,-0.3040771484375,0.0137939453125,11,0,29
2,24,3,68914,65,0.19122314453125,-0.9686279296875,-0.14984130859375,0.52642822265625,-5.06591796875,-1.7242431640625,-0.5323486328125,0.432861328125,0.299072265625,11,0,170
2,24,1,68915,65,-0.260009765625,0.91143798828125,-0.278076171875,4.21142578125,-4.85992431640625,-0.48065185546875,-0.06494140625,-0.3096923828125,0.0162353515625,11,0,61
2,24,1,68968,66,-0.264892578125,0.90802001953125,-0.279052734375,3.60870361328125,-4.08935546875,-0.762939453125,-0.06298828125,-0.308837890625,0.016845703125,11,0,50
2,24,3,68969,66,0.192138671875,-0.97491455078125,-0.1524658203125,-0.1068115234375,-5.18035888671875,-1.36566162109375,-0.529296875,0.432373046875,0.3006591796875,11,0,176
2,24,3,69017,67,0.192138671875,-0.97491455078125,-0.1524658203125,-0.1068115234375,-5.18035888671875,-1.36566162109375,-0.5274658203125,0.4322509765625,0.2945556640625,11,0,73
2,24,1,69018,67,-0.264892578125,0.90802001953125,-0.279052734375,3.60870361328125,-4.08935546875,-0.762939453125,-0.06494140625,-0.3038330078125,0.01220703125,11,0,20
2,24,3,69070,68,0.18603515625,-0.96856689453125,-0.16888427734375,-0.63323974609375,-6.5765380859375,-1.24359130859375,-0.5296630859375,0.433349609375,0.296142578125,11,0,232
2,24,1,69071,68,-0.27423095703125,0.90692138671875,-0.28106689453125,3.02886962890625,-3.12042236328125,-1.41143798828125,-0.0665283203125,-0.303955078125,0.013916015625,11,0,130
2,24,3,69121,69,0.18603515625,-0.96856689453125,-0.16888427734375,-0.63323974609375,-6.5765380859375,-1.24359130859375,-0.524169921875,0.4293212890625,0.3011474609375,11,0,203
2,24,1,69122,69,-0.2850341796875,0.895263671875,-0.2822265625,2.716064453125,-3.24249267578125,-2.044677734375,-0.0645751953125,-0.3026123046875,0.0123291015625,11,0,35
2,24,3,69175,70,0.18597412109375,-0.9744873046875,-0.16876220703125,-0.3662109375,-6.49261474609375,-0.823974609375,-0.5250244140625,0.4290771484375,0.2965087890625,11,0,230
2,24,1,69177,70,-0.2850341796875,0.895263671875,-0.2822265625,2.716064453125,-3.24249267578125,-2.044677734375,-0.0706787109375,-0.3050537109375,0.01416015625,11,0,229
2,24,3,69178,70,0.18597412109375,-0.9744873046875,-0.16876220703125,-0.3662109375,-6.49261474609375,-0.823974609375,-0.5250244140625,0.4290771484375,0.2965087890625,11,0,113
2,24,1,69186,70,-0.2850341796875,0.895263671875,-0.2822265625,2.716064453125,-3.24249267578125,-2.044677734375,-0.0706787109375,-0.3050537109375,0.01416015625,11,0,25
2,24,3,69226,71,0.17864990234375,-0.9737548828125,-0.17779541015625,-0.457763671875,-6.15692138671875,-0.1678466796875,-0.5257568359375,0.4278564453125,0.2962646484375,11,0,18
2,24,1,69227,71,-0.2808837890625,0.9102783203125,-0.2825927734375,2.3345947265625,-3.326416015625,-1.617431640625,-0.0672607421875,-0.304443359375,0.0118408203125,11,0,139
2,24,1,69281,72,-0.2811279296875,0.90692138671875,-0.28338623046875,1.46484375,-3.4637451171875,-0.70953369140625,-0.063720703125,-0.3033447265625,0.0167236328125,11,0,141
2,24,3,69283,72,0.17864990234375,-0.9737548828125,-0.17779541015625,-0.457763671875,-6.15692138671875,-0.1678466796875,-0.522705078125,0.4295654296875,0.30029296875,11,0,216
2,24,3,69330,73,0.1776123046875,-0.9783935546875,-0.18048095703125,0.11444091796875,-5.7220458984375,-0.40435791015625,-0.523193359375,0.4296875,0.3009033203125,11,0,173
2,24,1,69331,73,-0.2811279296875,0.90692138671875,-0.28338623046875,1.46484375,-3.4637451171875,-0.70953369140625,-0.064453125,-0.3048095703125,0.015869140625,11,0,177
2,24,1,69383,74,-0.28985595703125,0.89434814453125,-0.2806396484375,0.5340576171875,-3.3111572265625,-0.2593994140625,-0.068603515625,-0.305908203125,0.014404296875,11,0,113
2,24,3,69385,74,0.1719970703125,-0.97210693359375,-0.18701171875,0.30517578125,-5.02777099609375,-0.32806396484375,-0.52392578125,0.427001953125,0.3023681640625,11,0,92
2,24,3,69435,75,0.1719970703125,-0.97210693359375,-0.18701171875,0.30517578125,-5.02777099609375,-0.32806396484375,-0.5242919921875,0.42919921875,0.298583984375,11,0,126
2,24,1,69443,75,-0.28436279296875,0.903564453125,-0.279052734375,1.19781494140625,-3.45611572265625,-0.28228759765625,-0.068359375,-0.3045654296875,0.0125732421875,11,0,155
2,24,3,69487,76,0.16754150390625,-0.975830078125,-0.185546875,0.7171630859375,-4.08935546875,-0.4730224609375,-0.52099609375,0.429443359375,0.3013916015625,11,0,156
2,24,1,69488,76,-0.28521728515625,0.89923095703125,-0.274658203125,1.800537109375,-3.37982177734375,-0.244140625,-0.0650634765625,-0.3084716796875,0.021240234375,11,0,252
2,24,3,69548,77,0.171630859375,-0.97174072265625,-0.1915283203125,1.54876708984375,-4.302978515625,-1.1444091796875,-0.522705078125,0.4278564453125,0.3026123046875,11,0,51
2,24,1,69550,77,-0.28521728515625,0.89923095703125,-0.274658203125,1.800537109375,-3.37982177734375,-0.244140625,-0.0699462890625,-0.30712890625,0.0242919921875,11,0,12
2,24,1,69600,78,-0.279052734375,0.899169921875,-0.27447509765625,1.953125,-3.19671630859375,-0.11444091796875,-0.0673828125,-0.304931640625,0.014892578125,11,0,141
2,24,3,69602,78,0.16851806640625,-0.97247314453125,-0.18719482421875,2.471923828125,-4.57763671875,-1.44195556640625,-0.519775390625,0.4287109375,0.3035888671875,11,0,22
2,24,3,69652,79,0.16851806640625,-0.97247314453125,-0.18719482421875,2.471923828125,-4.57763671875,-1.44195556640625,-0.5220947265625,0.4287109375,0.2978515625,11,0,120
2,24,1,69653,79,-0.27532958984375,0.91021728515625,-0.2783203125,2.11334228515625,-2.9449462890625,0.29754638671875,-0.0660400390625,-0.3045654296875,0.0152587890625,11,0,177
2,24,1,69696,80,-0.27532958984375,0.91021728515625,-0.2783203125,2.11334228515625,-2.9449462890625,0.29754638671875,-0.065673828125,-0.305908203125,0.0150146484375,11,0,186
2,24,3,69699,80,0.162353515625,-0.97735595703125,-0.19012451171875,3.34930419921875,-5.97381591796875,-1.9683837890625,-0.5220947265625,0.42919921875,0.3052978515625,11,0,199
2,24,3,69749,81,0.162353515625,-0.97735595703125,-0.19012451171875,3.34930419921875,-5.97381591796875,-1.9683837890625,-0.52392578125,0.4285888671875,0.3031005859375,11,0,78
2,24,1,69750,81,-0.27117919921875,0.89947509765625,-0.2816162109375,2.50244140625,-2.52532958984375,0.49591064453125,-0.0672607421875,-0.3077392578125,0.0220947265625,11,0,185
2,24,1,69801,82,-0.27117919921875,0.89947509765625,-0.2816162109375,2.50244140625,-2.52532958984375,0.49591064453125,-0.06591796875,-0.3060302734375,0.017822265625,11,0,134
2,24,3,69803,82,0.1639404296875,-0.97247314453125,-0.18280029296875,5.66864013671875,-5.34820556640625,-4.29534912109375,-0.5245361328125,0.4300537109375,0.3057861328125,11,0,2
2,24,1,69866,83,-0.270751953125,0.90447998046875,-0.2823486328125,3.1585693359375,-1.373291015625,-0.06103515625,-0.067626953125,-0.310546875,0.021728515625,11,0,206
2,24,3,69910,84,0.1680908203125,-0.97430419921875,-0.1800537109375,5.63812255859375,-4.3487548828125,-5.0201416015625,-0.52783203125,0.4361572265625,0.2974853515625,11,0,205
2,24,1,69914,84,-0.2735595703125,0.90301513671875,-0.28680419921875,3.92913818359375,-0.152587890625,-0.7781982421875,-0.0714111328125,-0.306884765625,0.020751953125,11,0,110
2,24,1,69957,85,-0.2735595703125,0.90301513671875,-0.28680419921875,3.92913818359375,-0.152587890625,-0.7781982421875,-0.068603515625,-0.3060302734375,0.0247802734375,11,0,144
2,24,3,69960,85,0.17584228515625,-0.9722900390625,-0.17901611328125,4.82940673828125,-3.34930419921875,-4.41741943359375,-0.529296875,0.4320068359375,0.30322265625,11,0,212
2,24,1,70010,86,-0.2760009765625,0.90386962890625,-0.28179931640625,4.11224365234375,-0.40435791015625,-1.2664794921875,-0.064697265625,-0.307373046875,0.0216064453125,11,0,78
2,24,3,70011,86,0.18243408203125,-0.973388671875,-0.17132568359375,4.93621826171875,-1.434326171875,-4.21142578125,-0.52734375,0.429931640625,0.301025390625,11,0,40
2,24,3,70062,87,0.18243408203125,-0.973388671875,-0.17132568359375,4.93621826171875,-1.434326171875,-4.21142578125,-0.5294189453125,0.4337158203125,0.2947998046875,11,0,134
2,24,1,70064,87,-0.27337646484375,0.90704345703125,-0.2864990234375,3.7841796875,-1.8157958984375,-1.35040283203125,-0.07080078125,-0.30712890625,0.0185546875,11,0,89
2,24,1,70113,88,-0.26800537109375,0.908203125,-0.28265380859375,2.8076171875,-3.24249267578125,-1.01470947265625,-0.0679931640625,-0.306396484375,0.0218505859375,11,0,134
2,24,3,70114,88,0.18939208984375,-0.97247314453125,-0.16619873046875,5.9051513671875,-1.6326904296875,-5.01251220703125,-0.530029296875,0.4326171875,0.2978515625,11,0,209
2,24,3,70167,89,0.18585205078125,-0.97552490234375,-0.1571044921875,6.12640380859375,-1.25885009765625,-4.58526611328125,-0.5316162109375,0.4320068359375,0.3031005859375,11,0,37
2,24,1,70168,89,-0.26800537109375,0.908203125,-0.28265380859375,2.8076171875,-3.24249267578125,-1.01470947265625,-0.0697021484375,-0.30615234375,0.021484375,11,0,104
2,24,1,70220,90,-0.26702880859375,0.905517578125,-0.2801513671875,2.49481201171875,-4.67681884765625,-0.640869140625,-0.0645751953125,-0.3084716796875,0.0186767578125,11,0,134
2,24,3,70221,90,0.18585205078125,-0.97552490234375,-0.1571044921875,6.12640380859375,-1.25885009765625,-4.58526611328125,-0.533935546875,0.4334716796875,0.2977294921875,11,0,120
2,24,1,70272,91,-0.265380859375,0.90802001953125,-0.284912109375,2.410888671875,-5.7373046875,-0.31280517578125,-0.06396484375,-0.3082275390625,0.016357421875,11,0,104
2,24,3,70273,91,0.19049072265625,-0.9752197265625,-0.1536865234375,7.01904296875,-2.25067138671875,-4.0130615234375,-0.53271484375,0.4326171875,0.29248046875,11,0,254
2,24,3,70323,92,0.190185546875,-0.97686767578125,-0.15087890625,6.38580322265625,-2.35748291015625,-3.692626953125,-0.5325927734375,0.434326171875,0.2947998046875,11,0,241
2,24,1,70324,92,-0.265380859375,0.90802001953125,-0.284912109375,2.410888671875,-5.7373046875,-0.31280517578125,-0.0657958984375,-0.3065185546875,0.022705078125,11,0,97
2,24,3,70376,93,0.190185546875,-0.97686767578125,-0.15087890625,6.38580322265625,-2.35748291015625,-3.692626953125,-0.5361328125,0.4346923828125,0.291748046875,11,0,56
2,24,1,70378,93,-0.265380859375,0.9073486328125,-0.27557373046875,3.0975341796875,-6.88934326171875,0.1373291015625,-0.0645751953125,-0.3084716796875,0.0247802734375,11,0,109
2,24,3,70429,94,0.196533203125,-0.97344970703125,-0.1412353515625,5.2642822265625,-2.74658203125,-3.47137451171875,-0.53369140625,0.4351806640625,0.28515625,11,0,80
2,24,1,70432,94,-0.2626953125,0.90985107421875,-0.273681640625,3.50189208984375,-8.23974609375,0.518798828125,-0.0667724609375,-0.3096923828125,0.014892578125,11,0,31
2,24,1,70481,95,-0.2626953125,0.90985107421875,-0.273681640625,3.50189208984375,-8.23974609375,0.518798828125,-0.063720703125,-0.3116455078125,0.015380859375,11,0,120
2,24,3,70486,95,0.19512939453125,-0.9783935546875,-0.1419677734375,4.98199462890625,-2.73895263671875,-3.16619873046875,-0.5341796875,0.43212890625,0.2833251953125,11,0,42
2,24,1,70533,96,-0.26141357421875,0.90704345703125,-0.27618408203125,3.6163330078125,-9.36126708984375,0.87738037109375,-0.068115234375,-0.314453125,0.0125732421875,11,0,96
2,24,3,70534,96,0.19512939453125,-0.9783935546875,-0.1419677734375,4.98199462890625,-2.73895263671875,-3.16619873046875,-0.5322265625,0.43603515625,0.3099365234375,11,0,129
2,24,1,70588,97,-0.26141357421875,0.90704345703125,-0.27618408203125,3.6163330078125,-9.36126708984375,0.87738037109375,-0.0628662109375,-0.3148193359375,0.0145263671875,11,0,55
2,24,3,70589,97,0.19482421875,-0.974609375,-0.1378173828125,4.76837158203125,-2.99835205078125,-2.83050537109375,-0.532470703125,0.433349609375,0.28515625,11,0,4
2,24,3,70639,98,0.1964111328125,-0.97802734375,-0.1326904296875,4.3792724609375,-2.8533935546875,-2.4566650390625,-0.53662109375,0.4393310546875,0.2869873046875,11,0,102
2,24,1,70643,98,-0.25213623046875,0.9139404296875,-0.2672119140625,3.60107421875,-10.00213623046875,1.07574462890625,-0.0665283203125,-0.31103515625,0.008544921875,11,0,241
2,24,3,70689,99,0.1964111328125,-0.97802734375,-0.1326904296875,4.3792724609375,-2.8533935546875,-2.4566650390625,-0.534423828125,0.4383544921875,0.28564453125,11,0,192
2,24,1,70690,99,-0.25341796875,0.91094970703125,-0.2708740234375,3.45611572265625,-9.86480712890625,1.10626220703125,-0.0670166015625,-0.3116455078125,0.010986328125,11,0,28
2,24,3,70742,100,0.19110107421875,-0.98162841796875,-0.13311767578125,4.058837890625,-2.7008056640625,-2.3345947265625,-0.535888671875,0.4365234375,0.2857666015625,11,0,73
2,24,1,70752,100,-0.25146484375,0.91387939453125,-0.271240234375,3.50189208984375,-8.72039794921875,0.93841552734375,-0.0675048828125,-0.31103515625,0.0096435546875,11,0,77
2,24,3,70811,101,0.19366455078125,-0.97735595703125,-0.13214111328125,3.65447998046875,-3.2958984375,-2.87628173828125,-0.53515625,0.43408203125,0.2861328125,11,0,209
2,24,1,70816,101,-0.25146484375,0.91387939453125,-0.271240234375,3.50189208984375,-8.72039794921875,0.93841552734375,-0.0673828125,-0.30908203125,0.0142822265625,11,0,255
2,24,3,70848,102,0.19366455078125,-0.97735595703125,-0.13214111328125,3.65447998046875,-3.2958984375,-2.87628173828125,-0.540283203125,0.4344482421875,0.2884521484375,11,0,197
2,24,1,70854,102,-0.2559814453125,0.91192626953125,-0.267822265625,3.47137451171875,-7.24029541015625,0.52642822265625,-0.0697021484375,-0.3089599609375,0.0098876953125,11,0,160
2,24,1,70905,103,-0.25653076171875,0.9107666015625,-0.269775390625,3.28826904296875,-5.69915771484375,-0.152587890625,-0.0350341796875,-0.30810546875,0.0152587890625,11,0,165
2,24,3,70906,103,0.19635009765625,-0.97955322265625,-0.13214111328125,3.4332275390625,-3.63922119140625,-3.1585693359375,-0.536865234375,0.43603515625,0.28662109375,11,0,204
2,24,3,70952,104,0.19915771484375,-0.978271484375,-0.13165283203125,3.45611572265625,-3.6773681640625,-3.3721923828125,-0.536376953125,0.4346923828125,0.2913818359375,11,0,14
2,24,1,70953,104,-0.25653076171875,0.9107666015625,-0.269775390625,3.28826904296875,-5.69915771484375,-0.152587890625,-0.0673828125,-0.3115234375,0.008544921875,11,0,86
2,24,3,71005,105,0.19915771484375,-0.978271484375,-0.13165283203125,3.45611572265625,-3.6773681640625,-3.3721923828125,-0.5333251953125,0.4344482421875,0.28857421875,11,0,102
2,24,1,71006,105,-0.25830078125,0.91290283203125,-0.26959228515625,3.1280517578125,-4.57000732421875,-0.6256103515625,-0.0706787109375,-0.311279296875,0.00927734375,11,0,223
2,24,1,71056,106,-0.25775146484375,0.91485595703125,-0.27069091796875,2.76947021484375,-3.71551513671875,-0.92315673828125,-0.0701904296875,-0.3115234375,0.0145263671875,11,0,148
2,24,3,71069,106,0.19732666015625,-0.9805908203125,-0.12939453125,3.7384033203125,-4.20379638671875,-3.66973876953125,-0.5362548828125,0.4359130859375,0.2904052734375,11,0,38
2,24,3,71111,107,0.201904296875,-0.97833251953125,-0.12567138671875,3.41796875,-4.82940673828125,-3.85284423828125,-0.5364990234375,0.4376220703125,0.2913818359375,11,0,218
2,24,1,71113,107,-0.25775146484375,0.91485595703125,-0.27069091796875,2.76947021484375,-3.71551513671875,-0.92315673828125,-0.0672607421875,-0.313232421875,0.012939453125,11,0,229
2,24,1,71161,108,-0.260009765625,0.91168212890625,-0.2672119140625,2.60162353515625,-3.05938720703125,-0.95367431640625,-0.06591796875,-0.308349609375,0.0133056640625,11,0,107
2,24,3,71162,108,0.201904296875,-0.97833251953125,-0.12567138671875,3.41796875,-4.82940673828125,-3.85284423828125,-0.5352783203125,0.4332275390625,0.2921142578125,11,0,96
2,24,3,71215,109,0.20367431640625,-0.97589111328125,-0.126220703125,3.07464599609375,-4.425048828125,-3.89862060546875,-0.537353515625,0.435302734375,0.2899169921875,11,0,190
2,24,1,71221,109,-0.26214599609375,0.91473388671875,-0.2674560546875,2.410888671875,-2.99835205078125,-0.8544921875,-0.0667724609375,-0.3087158203125,0.015625,11,0,14
2,24,1,71271,110,-0.26214599609375,0.91473388671875,-0.2674560546875,2.410888671875,-2.99835205078125,-0.8544921875,-0.067626953125,-0.3111572265625,0.01611328125,11,0,3
2,24,3,71272,110,0.20440673828125,-0.9779052734375,-0.125732421875,2.9144287109375,-4.180908203125,-3.47900390625,-0.540771484375,0.4329833984375,0.2867431640625,11,0,39
2,24,3,71317,111,0.20440673828125,-0.9779052734375,-0.125732421875,2.9144287109375,-4.180908203125,-3.47900390625,-0.53955078125,0.4324951171875,0.2845458984375,11,0,56
2,24,1,71327,111,-0.26507568359375,0.91180419921875,-0.269287109375,2.12860107421875,-2.96783447265625,-1.0986328125,-0.06591796875,-0.3094482421875,0.013916015625,11,0,183
2,24,3,71376,112,0.206298828125,-0.9769287109375,-0.12652587890625,2.99835205078125,-4.425048828125,-3.47900390625,-0.5389404296875,0.4345703125,0.28662109375,11,0,191
2,24,1,71379,112,-0.26177978515625,0.912841796875,-0.26708984375,2.0751953125,-2.99835205078125,-1.373291015625,-0.068603515625,-0.31396484375,0.0201416015625,11,0,120
2,24,1,71425,113,-0.26177978515625,0.912841796875,-0.26708984375,2.0751953125,-2.99835205078125,-1.373291015625,-0.0682373046875,-0.30859375,0.0111083984375,11,0,75
2,24,3,71428,113,0.2060546875,-0.976806640625,-0.1282958984375,2.960205078125,-4.150390625,-3.50189208984375,-0.5421142578125,0.435546875,0.29443359375,11,0,50
2,24,1,71476,114,-0.2625732421875,0.91387939453125,-0.26409912109375,2.0751953125,-3.35693359375,-1.35040283203125,-0.066650390625,-0.3106689453125,0.012939453125,11,0,131
2,24,3,71477,114,0.2060546875,-0.976806640625,-0.1282958984375,2.960205078125,-4.150390625,-3.50189208984375,-0.5401611328125,0.4342041015625,0.29345703125,11,0,194
2,24,3,71527,115,0.21392822265625,-0.97418212890625,-0.12969970703125,2.4871826171875,-4.08172607421875,-3.35693359375,-0.53857421875,0.4337158203125,0.2882080078125,11,0,141
2,24,1,71529,115,-0.25994873046875,0.914306640625,-0.262939453125,2.13623046875,-3.6468505859375,-1.1749267578125,-0.0706787109375,-0.3096923828125,0.0111083984375,11,0,225
2,24,3,71589,116,0.20330810546875,-0.9752197265625,-0.12432861328125,2.05230712890625,-2.532958984375,-2.6702880859375,-0.541748046875,0.4365234375,0.2872314453125,11,0,33
2,24,1,71590,116,-0.25994873046875,0.914306640625,-0.262939453125,2.13623046875,-3.6468505859375,-1.1749267578125,-0.0687255859375,-0.3131103515625,0.0164794921875,11,0,101
2,24,1,71630,117,-0.2547607421875,0.91064453125,-0.26055908203125,1.8463134765625,-2.90679931640625,-1.48773193359375,-0.068115234375,-0.308837890625,0.0123291015625,11,0,65
2,24,3,71631,117,0.20330810546875,-0.9752197265625,-0.12432861328125,2.05230712890625,-2.532958984375,-2.6702880859375,-0.5404052734375,0.4344482421875,0.2921142578125,11,0,237
2,24,3,71686,118,0.20550537109375,-0.97686767578125,-0.1336669921875,2.11334228515625,-2.5787353515625,-2.54058837890625,-0.5416259765625,0.4368896484375,0.2843017578125,11,0,95
2,24,1,71690,118,-0.25750732421875,0.9140625,-0.2611083984375,1.3275146484375,-1.1138916015625,-2.73895263671875,-0.0667724609375,-0.3099365234375,0.010986328125,11,0,180
2,24,3,71740,119,0.20941162109375,-0.9749755859375,-0.12872314453125,2.471923828125,-4.46319580078125,-3.31878662109375,-0.5400390625,0.4375,0.2879638671875,11,0,76
2,24,1,71741,119,-0.25750732421875,0.9140625,-0.2611083984375,1.3275146484375,-1.1138916015625,-2.73895263671875,-0.0640869140625,-0.3074951171875,0.0093994140625,11,0,222
2,24,3,71788,120,0.20941162109375,-0.9749755859375,-0.12872314453125,2.471923828125,-4.46319580078125,-3.31878662109375,-0.5416259765625,0.435302734375,0.2899169921875,11,0,220
2,24,1,71795,120,-0.2664794921875,0.90740966796875,-0.26214599609375,1.0528564453125,0.67901611328125,-3.50189208984375,-0.064697265625,-0.3046875,0.01708984375,11,0,102
2,24,3,71841,121,0.205810546875,-0.977294921875,-0.13201904296875,2.3651123046875,-5.035400390625,-3.3111572265625,-0.5389404296875,0.4385986328125,0.2872314453125,11,0,3
2,24,1,71843,121,-0.275634765625,0.9088134765625,-0.26397705078125,1.19781494140625,1.9683837890625,-3.692626953125,-0.0625,-0.31005859375,0.0191650390625,11,0,44
2,24,3,71893,122,0.2113037109375,-0.974609375,-0.13922119140625,2.28118896484375,-6.56890869140625,-3.63922119140625,-0.5406494140625,0.435302734375,0.2861328125,11,0,59
2,24,1,71894,122,-0.275634765625,0.9088134765625,-0.26397705078125,1.19781494140625,1.9683837890625,-3.692626953125,-0.063720703125,-0.3046875,0.015380859375,11,0,192
2,24,1,71946,123,-0.281982421875,0.9068603515625,-0.2646484375,1.77764892578125,1.41143798828125,-3.2806396484375,-0.064697265625,-0.305419921875,0.0181884765625,11,0,17
2,24,3,71947,123,0.2113037109375,-0.974609375,-0.13922119140625,2.28118896484375,-6.56890869140625,-3.63922119140625,-0.54443359375,0.4317626953125,0.2899169921875,11,0,151
2,24,3,71998,124,0.210205078125,-0.97467041015625,-0.13824462890625,2.34222412109375,-6.1798095703125,-3.72314453125,-0.5360107421875,0.4381103515625,0.28759765625,11,0,132
2,24,1,72002,124,-0.2828369140625,0.907470703125,-0.26611328125,2.5482177734375,-0.1373291015625,-2.3956298828125,-0.0631103515625,-0.3046875,0.022216796875,11,0,205
2,24,1,72050,125,-0.2828369140625,0.907470703125,-0.26611328125,2.5482177734375,-0.1373291015625,-2.3956298828125,-0.0645751953125,-0.3037109375,0.018310546875,11,0,165
2,24,3,72051,125,0.21685791015625,-0.97198486328125,-0.13726806640625,2.17437744140625,-5.33294677734375,-3.36456298828125,-0.54150390625,0.4351806640625,0.2943115234375,11,0,1
2,24,3,72104,126,0.21685791015625,-0.97198486328125,-0.13726806640625,2.17437744140625,-5.33294677734375,-3.36456298828125,-0.537841796875,0.4361572265625,0.292236328125,11,0,144
2,24,1,72108,126,-0.278564453125,0.90673828125,-0.2664794921875,3.2958984375,-2.79998779296875,-1.495361328125,-0.0670166015625,-0.3011474609375,0.0179443359375,11,0,158
2,24,1,72155,127,-0.27630615234375,0.90924072265625,-0.26654052734375,3.57818603515625,-4.6234130859375,-0.77056884765625,-0.0634765625,-0.302734375,0.019287109375,11,0,80
2,24,3,72156,127,0.21331787109375,-0.9742431640625,-0.13671875,2.105712890625,-4.58526611328125,-2.8839111328125,-0.54541015625,0.4359130859375,0.29541015625,11,0,213
2,24,1,72207,128,-0.27630615234375,0.90924072265625,-0.26654052734375,3.57818603515625,-4.6234130859375,-0.77056884765625,-0.067138671875,-0.302001953125,0.018310546875,11,0,4
2,24,3,72208,128,0.21295166015625,-0.97369384765625,-0.13800048828125,2.105712890625,-4.32586669921875,-2.51007080078125,-0.5401611328125,0.432373046875,0.2916259765625,11,0,78
2,24,3,72260,129,0.21295166015625,-0.97369384765625,-0.13800048828125,2.105712890625,-4.32586669921875,-2.51007080078125,-0.5396728515625,0.433349609375,0.28955078125,11,0,191
2,24,1,72261,129,-0.2733154296875,0.9097900390625,-0.266845703125,3.7078857421875,-5.68389892578125,-0.22125244140625,-0.064697265625,-0.30078125,0.0185546875,11,0,142
2,24,1,72311,130,-0.267333984375,0.9105224609375,-0.2664794921875,3.48663330078125,-6.2255859375,0.16021728515625,-0.0682373046875,-0.3037109375,0.019287109375,11,0,194
2,24,3,72312,130,0.21136474609375,-0.974609375,-0.13995361328125,2.13623046875,-4.4097900390625,-2.41851806640625,-0.540283203125,0.430419921875,0.2891845703125,11,0,189
2,24,3,72363,131,0.21087646484375,-0.97320556640625,-0.143310546875,1.79290771484375,-4.5166015625,-2.37274169921875,-0.5396728515625,0.4306640625,0.2918701171875,11,0,215
2,24,1,72365,131,-0.267333984375,0.9105224609375,-0.2664794921875,3.48663330078125,-6.2255859375,0.16021728515625,-0.0684814453125,-0.3060302734375,0.0142822265625,11,0,41
2,24,1,72421,132,-0.26177978515625,0.91448974609375,-0.26226806640625,3.448486328125,-6.90460205078125,0.43487548828125,-0.0657958984375,-0.3052978515625,0.021484375,11,0,135
2,24,3,72422,132,0.21087646484375,-0.97320556640625,-0.143310546875,1.79290771484375,-4.5166015625,-2.37274169921875,-0.5423583984375,0.427978515625,0.2972412109375,11,0,102
2,24,1,72476,133,-0.25738525390625,0.9169921875,-0.26422119140625,3.33404541015625,-7.13348388671875,0.45013427734375,-0.0628662109375,-0.3048095703125,0.0130615234375,11,0,17
2,24,3,72477,133,0.2088623046875,-0.97442626953125,-0.14801025390625,0.89263916015625,-4.4403076171875,-1.79290771484375,-0.54248046875,0.4310302734375,0.2965087890625,11,0,61
2,24,1,72520,134,-0.25738525390625,0.9169921875,-0.26422119140625,3.33404541015625,-7.13348388671875,0.45013427734375,-0.067138671875,-0.306396484375,0.014892578125,11,0,226
2,24,3,72521,134,0.21026611328125,-0.9732666015625,-0.14849853515625,0.43487548828125,-4.43267822265625,-2.044677734375,-0.536376953125,0.4271240234375,0.2962646484375,11,0,73
2,24,1,72574,135,-0.23870849609375,0.92633056640625,-0.2547607421875,3.31878662109375,-7.7972412109375,0.57220458984375,-0.06787109375,-0.3040771484375,0.0150146484375,11,0,68
2,24,3,72576,135,0.21026611328125,-0.9732666015625,-0.14849853515625,0.43487548828125,-4.43267822265625,-2.044677734375,-0.5445556640625,0.4278564453125,0.29833984375,11,0,161
2,24,1,72626,136,-0.226806640625,0.918212890625,-0.24755859375,1.922607421875,-6.66046142578125,0.22125244140625,-0.0673828125,-0.30712890625,0.0185546875,11,0,102
2,24,3,72627,136,0.2086181640625,-0.96905517578125,-0.15142822265625,-0.54931640625,-4.46319580078125,-2.28118896484375,-0.5352783203125,0.43017578125,0.301025390625,11,0,78
2,24,3,72678,137,0.203369140625,-0.97039794921875,-0.16455078125,-2.01416015625,-4.9591064453125,-2.3040771484375,-0.534912109375,0.4248046875,0.302001953125,11,0,87
2,24,1,72685,137,-0.226806640625,0.918212890625,-0.24755859375,1.922607421875,-6.66046142578125,0.22125244140625,-0.0693359375,-0.3045654296875,0.0194091796875,11,0,165
2,24,3,72730,138,0.203369140625,-0.97039794921875,-0.16455078125,-2.01416015625,-4.9591064453125,-2.3040771484375,-0.5399169921875,0.4251708984375,0.3076171875,11,0,227
2,24,1,72733,138,-0.2177734375,0.92742919921875,-0.24176025390625,-0.19073486328125,-2.6702880859375,-0.7171630859375,-0.065185546875,-0.3099365234375,0.0194091796875,11,0,155
2,24,1,72782,139,-0.2276611328125,0.9256591796875,-0.23681640625,-1.91497802734375,2.0599365234375,-1.7852783203125,-0.0660400390625,-0.30810546875,0.01953125,11,0,140
2,24,3,72783,139,0.2005615234375,-0.95208740234375,-0.166015625,-3.7689208984375,-6.195068359375,-2.3345947265625,-0.5357666015625,0.42138671875,0.31103515625,11,0,1
2,24,1,72839,140,-0.2276611328125,0.9256591796875,-0.23681640625,-1.91497802734375,2.0599365234375,-1.7852783203125,-0.072509765625,-0.302734375,0.017578125,11,0,20
2,24,3,72840,140,0.2001953125,-0.958984375,-0.19256591796875,-6.1187744140625,-7.843017578125,-2.69317626953125,-0.532470703125,0.41943359375,0.30859375,11,0,93
2,24,1,72892,141,-0.23565673828125,0.951416015625,-0.2216796875,-4.1961669921875,8.30078125,-3.91387939453125,-0.065673828125,-0.3050537109375,0.0145263671875,11,0,38
2,24,3,72893,141,0.2001953125,-0.958984375,-0.19256591796875,-6.1187744140625,-7.843017578125,-2.69317626953125,-0.52783203125,0.4176025390625,0.312744140625,11,0,134
2,24,1,72942,142,-0.2891845703125,0.9273681640625,-0.23736572265625,-8.4075927734375,14.6636962890625,-7.415771484375,-0.0633544921875,-0.294921875,0.02734375,11,0,48
2,24,3,72943,142,0.20721435546875,-0.95623779296875,-0.206298828125,-7.598876953125,-12.3138427734375,-2.8533935546875,-0.52685546875,0.414794921875,0.3140869140625,11,0,46
2,24,3,72998,143,0.22088623046875,-0.9395751953125,-0.24578857421875,-9.34600830078125,-9.368896484375,-0.0152587890625,-0.5242919921875,0.4144287109375,0.32177734375,11,0,136
2,24,1,72999,143,-0.2891845703125,0.9273681640625,-0.23736572265625,-8.4075927734375,14.6636962890625,-7.415771484375,-0.0635986328125,-0.3011474609375,0.0316162109375,11,0,24
2,24,3,73050,144,0.22088623046875,-0.9395751953125,-0.24578857421875,-9.34600830078125,-9.368896484375,-0.0152587890625,-0.5233154296875,0.4136962890625,0.318603515625,11,0,113
2,24,1,73055,144,-0.33489990234375,0.86199951171875,-0.230712890625,-13.02337646484375,19.1497802734375,-10.528564453125,-0.064697265625,-0.299072265625,0.029541015625,11,0,13
2,24,1,73098,145,-0.39605712890625,0.91717529296875,-0.26666259765625,-12.0391845703125,15.899658203125,-10.45989990234375,-0.062744140625,-0.29248046875,0.0269775390625,11,0,163
2,24,3,73100,145,0.167724609375,-0.9866943359375,-0.25634765625,-8.758544921875,-1.40380859375,5.19561767578125,-0.5234375,0.408447265625,0.3221435546875,11,0,175
2,24,3,73155,146,0.16741943359375,-0.9625244140625,-0.2568359375,-0.9307861328125,-0.99945068359375,2.8076171875,-0.521484375,0.4151611328125,0.324951171875,11,0,131
2,24,1,73156,146,-0.3331298828125,0.88275146484375,-0.25146484375,-12.0391845703125,1.678466796875,-8.14056396484375,-0.055908203125,-0.2930908203125,0.033203125,11,0,118
2,24,3,73204,147,0.16741943359375,-0.9625244140625,-0.2568359375,-0.9307861328125,-0.99945068359375,2.8076171875,-0.525146484375,0.412841796875,0.3231201171875,11,0,86
2,24,1,73207,147,-0.3331298828125,0.88275146484375,-0.25146484375,-2.227783203125,1.678466796875,-8.14056396484375,-0.055419921875,-0.292724609375,0.0341796875,11,0,59
2,24,1,73261,148,-0.3570556640625,0.84832763671875,-0.2371826171875,1.7242431640625,1.2054443359375,-7.7667236328125,-0.055419921875,-0.291748046875,0.0286865234375,11,0,6
2,24,3,73262,148,0.18157958984375,-0.947021484375,-0.23565673828125,7.88116455078125,-7.354736328125,-3.9825439453125,-0.5225830078125,0.4141845703125,0.318115234375,11,0,254
2,24,1,73306,149,-0.36114501953125,0.873291015625,-0.25384521484375,3.448486328125,2.55584716796875,-4.14276123046875,-0.0562744140625,-0.2900390625,0.03271484375,11,0,210
2,24,3,73307,149,0.16436767578125,-0.97161865234375,-0.23846435546875,8.4075927734375,-7.4920654296875,-2.15911865234375,-0.52001953125,0.4154052734375,0.3154296875,11,0,82
2,24,3,73360,150,0.16436767578125,-0.97161865234375,-0.23846435546875,8.4075927734375,-7.4920654296875,-2.15911865234375,-0.519287109375,0.418701171875,0.318115234375,11,0,107
2,24,1,73361,150,-0.36114501953125,0.873291015625,-0.25384521484375,3.448486328125,2.55584716796875,-4.14276123046875,-0.0560302734375,-0.29052734375,0.029296875,11,0,101
2,24,3,73411,151,0.16632080078125,-0.97265625,-0.23358154296875,6.3018798828125,-5.889892578125,-2.28118896484375,-0.521728515625,0.415771484375,0.312744140625,11,0,191
2,24,1,73412,151,-0.34649658203125,0.865478515625,-0.26812744140625,8.4381103515625,-4.23431396484375,1.739501953125,-0.061767578125,-0.2913818359375,0.0341796875,11,0,170
2,24,3,73466,152,0.18157958984375,-0.9615478515625,-0.232177734375,6.2713623046875,-2.17437744140625,-4.8065185546875,-0.520263671875,0.417724609375,0.3167724609375,11,0,50
2,24,1,73467,152,-0.34649658203125,0.865478515625,-0.26812744140625,8.4381103515625,-4.23431396484375,1.739501953125,-0.0640869140625,-0.291748046875,0.03857421875,11,0,117
2,24,1,73524,153,-0.3643798828125,0.833251953125,-0.281982421875,13.64898681640625,-11.04736328125,7.2021484375,-0.0634765625,-0.2991943359375,0.033447265625,11,0,38
2,24,3,73526,153,0.18157958984375,-0.9615478515625,-0.232177734375,6.2713623046875,-2.17437744140625,-4.8065185546875,-0.52685546875,0.4207763671875,0.3175048828125,11,0,111
2,24,3,73568,154,0.173828125,-0.96563720703125,-0.23529052734375,6.4697265625,1.35040283203125,-5.4473876953125,-0.5291748046875,0.423583984375,0.3046875,11,0,195
2,24,1,73569,154,-0.3336181640625,0.809814453125,-0.3287353515625,20.56884765625,-17.7459716796875,13.2293701171875,-0.0675048828125,-0.2969970703125,0.03662109375,11,0,175
2,24,3,73623,155,0.23291015625,-1.0057373046875,-0.11651611328125,12.07733154296875,-0.60272216796875,-9.63592529296875,-0.5318603515625,0.426513671875,0.3077392578125,11,0,71
2,24,1,73625,155,-0.3336181640625,0.809814453125,-0.3287353515625,20.56884765625,-17.7459716796875,13.2293701171875,-0.065185546875,-0.3026123046875,0.02685546875,11,0,92
2,24,1,73676,156,-0.11114501953125,0.91064453125,-0.25457763671875,25.238037109375,-34.06524658203125,14.94598388671875,-0.06689453125,-0.3017578125,0.024169921875,11,0,121
2,24,3,73677,156,0.23291015625,-1.0057373046875,-0.11651611328125,12.07733154296875,-0.60272216796875,-9.63592529296875,-0.5401611328125,0.427490234375,0.3035888671875,11,0,0
2,24,1,73733,157,-0.3570556640625,0.7821044921875,-0.17340087890625,-0.3814697265625,-11.474609375,2.0294189453125,-0.065185546875,-0.2943115234375,0.021484375,11,0,113
2,24,3,73735,157,0.25982666015625,-0.8486328125,-0.2027587890625,17.63916015625,-1.86920166015625,-15.2130126953125,-0.54443359375,0.42822265625,0.2943115234375,11,0,72
2,24,3,73779,158,0.2120361328125,-0.99603271484375,-0.1368408203125,16.63970947265625,2.471923828125,-3.19671630859375,-0.5426025390625,0.431640625,0.2899169921875,11,0,8
2,24,1,73780,158,-0.25848388671875,0.98944091796875,-0.24359130859375,-0.3814697265625,-11.474609375,2.0294189453125,-0.0633544921875,-0.3009033203125,0.0260009765625,11,0,176
2,24,3,73835,159,0.2120361328125,-0.99603271484375,-0.1368408203125,16.63970947265625,2.471923828125,-3.19671630859375,-0.541748046875,0.436279296875,0.2841796875,11,0,86
2,24,1,73839,159,-0.25848388671875,0.98944091796875,-0.24359130859375,7.01904296875,-9.674072265625,-2.532958984375,-0.060546875,-0.2978515625,0.023681640625,11,0,245
2,24,3,73890,160,0.2449951171875,-0.97772216796875,-0.1639404296875,12.97760009765625,-2.777099609375,-3.19671630859375,-0.5443115234375,0.436767578125,0.2852783203125,11,0,29
2,24,1,73891,160,-0.27105712890625,0.90179443359375,-0.2601318359375,-1.27410888671875,-11.4898681640625,-0.09918212890625,-0.0673828125,-0.299560546875,0.0272216796875,11,0,226
2,24,1,73938,161,-0.281494140625,0.90899658203125,-0.239990234375,0.78582763671875,-10.30731201171875,4.76837158203125,-0.0640869140625,-0.304931640625,0.0120849609375,11,0,206
2,24,3,73940,161,0.213134765625,-0.9739990234375,-0.08831787109375,13.02337646484375,-3.9520263671875,-3.875732421875,-0.5455322265625,0.4378662109375,0.2847900390625,11,0,150
2,24,1,73987,162,-0.281494140625,0.90899658203125,-0.239990234375,0.78582763671875,-10.30731201171875,4.76837158203125,-0.0635986328125,-0.3074951171875,0.01318359375,11,0,176
2,24,3,73988,162,0.213134765625,-0.9739990234375,-0.08831787109375,13.02337646484375,-3.9520263671875,-3.875732421875,-0.5465087890625,0.438720703125,0.2783203125,11,0,85
2,24,3,74039,163,0.277099609375,-0.947021484375,-0.1097412109375,14.18304443359375,-4.06646728515625,-6.79779052734375,-0.5428466796875,0.44140625,0.277587890625,11,0,72
2,24,1,74040,163,-0.21368408203125,0.90570068359375,-0.224609375,2.5177001953125,-16.05987548828125,3.3416748046875,-0.0631103515625,-0.3092041015625,0.0135498046875,11,0,193
2,24,3,74041,163,0.277099609375,-0.947021484375,-0.1097412109375,14.18304443359375,-4.06646728515625,-6.79779052734375,-0.5428466796875,0.44140625,0.277587890625,11,0,22
2,24,3,74092,164,0.19171142578125,-0.99066162109375,-0.099365234375,10.45989990234375,-0.05340576171875,1.04522705078125,-0.5452880859375,0.4403076171875,0.27587890625,11,0,254
2,24,1,74095,164,-0.260986328125,0.9228515625,-0.22442626953125,-0.7781982421875,-9.55963134765625,1.4801025390625,-0.0657958984375,-0.3055419921875,0.009521484375,11,0,100
2,24,1,74144,165,-0.260986328125,0.9228515625,-0.22442626953125,-0.7781982421875,-9.55963134765625,1.4801025390625,-0.0672607421875,-0.3101806640625,0.0037841796875,11,0,57
2,24,3,74148,165,0.19171142578125,-0.99066162109375,-0.099365234375,10.45989990234375,-0.05340576171875,1.04522705078125,-0.5467529296875,0.439208984375,0.27392578125,11,0,134
2,24,1,74196,166,-0.22998046875,0.91363525390625,-0.23736572265625,1.74713134765625,-9.4451904296875,0.335693359375,-0.070068359375,-0.3070068359375,0.0103759765625,11,0,121
2,24,3,74198,166,0.22198486328125,-0.97015380859375,-0.071533203125,9.77325439453125,-2.0904541015625,1.77001953125,-0.54736328125,0.44580078125,0.2711181640625,11,0,84
2,24,3,74249,167,0.210693359375,-0.99676513671875,-0.068115234375,9.05609130859375,-6.38580322265625,-2.6397705078125,-0.5465087890625,0.44482421875,0.2734375,11,0,225
2,24,1,74250,167,-0.22998046875,0.91363525390625,-0.23736572265625,1.74713134765625,-9.4451904296875,0.335693359375,-0.064697265625,-0.312255859375,0.0078125,11,0,52
2,24,1,74301,168,-0.2506103515625,0.9208984375,-0.23736572265625,1.4801025390625,-8.941650390625,-0.0152587890625,-0.063232421875,-0.3084716796875,0.004638671875,11,0,239
2,24,3,74304,168,0.210693359375,-0.99676513671875,-0.068115234375,9.05609130859375,-6.38580322265625,-2.6397705078125,-0.545166015625,0.44775390625,0.267578125,11,0,38
2,24,1,74359,169,-0.250732421875,0.92529296875,-0.24346923828125,2.99835205078125,-4.37164306640625,-0.96893310546875,-0.0665283203125,-0.31103515625,0.0062255859375,11,0,109
2,24,3,74360,169,0.21759033203125,-0.9866943359375,-0.06585693359375,8.21685791015625,-4.89044189453125,-3.631591796875,-0.547607421875,0.44970703125,0.2703857421875,11,0,150
2,24,1,74406,170,-0.2568359375,0.91290283203125,-0.2386474609375,5.2032470703125,-3.5247802734375,-0.45013427734375,-0.068115234375,-0.3089599609375,0.004638671875,11,0,79
2,24,3,74407,170,0.23248291015625,-0.9656982421875,-0.0474853515625,7.4005126953125,-2.67791748046875,-4.08935546875,-0.548095703125,0.447265625,0.2657470703125,11,0,243
2,24,3,74465,171,0.23248291015625,-0.9656982421875,-0.0474853515625,7.4005126953125,-2.67791748046875,-4.08935546875,-0.54638671875,0.450927734375,0.2730712890625,11,0,75
2,24,1,74466,171,-0.2568359375,0.91290283203125,-0.2386474609375,5.2032470703125,-3.5247802734375,-0.45013427734375,-0.0638427734375,-0.3062744140625,0.005859375,11,0,67
2,24,1,74510,172,-0.2899169921875,0.9134521484375,-0.24652099609375,5.80596923828125,-5.2642822265625,-1.068115234375,-0.0672607421875,-0.308349609375,0.0086669921875,11,0,154
2,24,3,74512,172,0.218994140625,-0.99517822265625,-0.06024169921875,7.26318359375,-4.29534912109375,-4.2266845703125,-0.5465087890625,0.4560546875,0.2635498046875,11,0,90
2,24,1,74567,173,-0.322265625,0.919677734375,-0.26043701171875,3.8604736328125,-4.7149658203125,-1.220703125,-0.0657958984375,-0.30859375,0.0047607421875,11,0,190
2,24,3,74568,173,0.204345703125,-1.0235595703125,-0.04742431640625,8.59832763671875,-4.0740966796875,-8.99505615234375,-0.5596923828125,0.4534912109375,0.2637939453125,11,0,36
2,24,3,74616,174,0.204345703125,-1.0235595703125,-0.04742431640625,8.59832763671875,-4.0740966796875,-8.99505615234375,-0.5709228515625,0.4541015625,0.2574462890625,11,0,222
2,24,1,74617,174,-0.322265625,0.919677734375,-0.26043701171875,3.8604736328125,-4.7149658203125,-1.220703125,-0.0684814453125,-0.3094482421875,-0.0009765625,11,0,25
2,24,1,74668,175,-0.30682373046875,0.92156982421875,-0.22705078125,1.71661376953125,-7.26318359375,2.105712890625,-0.0692138671875,-0.3140869140625,-0.0064697265625,11,0,182
2,24,3,74670,175,0.202880859375,-1.0806884765625,-0.03204345703125,14.251708984375,8.4686279296875,-26.81732177734375,-0.5927734375,0.4464111328125,0.242919921875,11,0,210
2,24,1,74720,176,-0.29644775390625,0.920654296875,-0.15814208984375,-0.1983642578125,-17.15850830078125,6.69097900390625,-0.07080078125,-0.314697265625,-0.01220703125,11,0,116
2,24,3,74728,176,0.3349609375,-1.3436279296875,0.1827392578125,16.9525146484375,18.89801025390625,-58.2427978515625,-0.6214599609375,0.4434814453125,0.2412109375,11,0,62
2,24,1,74773,177,-0.29644775390625,0.920654296875,-0.15814208984375,-0.1983642578125,-17.15850830078125,6.69097900390625,-0.07568359375,-0.316162109375,-0.0255126953125,11,0,97
2,24,3,74774,177,0.3349609375,-1.3436279296875,0.1827392578125,16.9525146484375,18.89801025390625,-58.2427978515625,-0.647216796875,0.42626953125,0.2320556640625,11,0,205
2,24,3,74827,178,0.48895263671875,-0.83404541015625,-0.3084716796875,0.22125244140625,19.34814453125,-82.763671875,-0.6693115234375,0.41064453125,0.233154296875,11,0,174
2,24,1,74828,178,-0.17584228515625,0.917236328125,-0.20306396484375,-4.50897216796875,-31.890869140625,7.89642333984375,-0.0726318359375,-0.3170166015625,-0.0252685546875,11,0,177
2,24,3,74880,179,0.6888427734375,-0.67645263671875,0.12384033203125,-11.8560791015625,26.214599609375,-64.117431640625,-0.6898193359375,0.3985595703125,0.2308349609375,11,0,77
2,24,1,74881,179,-0.18756103515625,0.99322509765625,-0.2274169921875,-5.65338134765625,-30.029296875,5.07354736328125,-0.0767822265625,-0.3193359375,-0.0352783203125,11,0,72
2,24,3,74940,180,0.6888427734375,-0.67645263671875,0.12384033203125,-11.8560791015625,26.214599609375,-64.117431640625,-0.6915283203125,0.387451171875,0.2357177734375,11,0,133
2,24,1,74942,180,-0.18756103515625,0.99322509765625,-0.2274169921875,-5.65338134765625,-30.029296875,5.07354736328125,-0.0789794921875,-0.326171875,-0.033203125,11,0,77
2,24,3,74982,181,0.4932861328125,-0.3587646484375,0.248291015625,-14.24407958984375,23.162841796875,-34.29412841796875,-0.6905517578125,0.390380859375,0.2376708984375,11,0,231
2,24,1,74987,181,-0.17474365234375,0.93707275390625,-0.2279052734375,-0.030517578125,-11.9781494140625,4.2724609375,-0.0755615234375,-0.322998046875,-0.0260009765625,11,0,74
2,24,3,75036,182,0.26141357421875,-0.1815185546875,0.02471923828125,6.103515625,-19.30999755859375,-16.92962646484375,-0.690185546875,0.389892578125,0.2442626953125,11,0,128
2,24,1,75040,182,-0.14984130859375,0.919921875,-0.18212890625,6.1492919921875,-4.79888916015625,1.0528564453125,-0.0755615234375,-0.316650390625,-0.02734375,11,0,45
2,24,1,75092,183,-0.1844482421875,0.94091796875,-0.25921630859375,6.1492919921875,4.20379638671875,-2.92205810546875,-0.072265625,-0.318603515625,-0.0279541015625,11,0,186
2,24,3,75093,183,0.26141357421875,-0.1815185546875,0.02471923828125,6.103515625,-19.30999755859375,-16.92962646484375,-0.6619873046875,0.4090576171875,0.2476806640625,11,0,163
2,24,3,75143,184,-0.55621337890625,-0.26116943359375,0.0836181640625,5.25665283203125,-26.3824462890625,20.69091796875,-0.6226806640625,0.4381103515625,0.2362060546875,11,0,155
2,24,1,75146,184,-0.1844482421875,0.94091796875,-0.25921630859375,6.30950927734375,4.20379638671875,-2.92205810546875,-0.069580078125,-0.31591796875,-0.017822265625,11,0,228
2,24,3,75193,185,1.9310302734375,-1.953125,0.44287109375,0.518798828125,10.8184814453125,138.12255859375,-0.577392578125,0.445556640625,0.249267578125,11,0,59
2,24,1,75194,185,-0.23846435546875,0.97991943359375,-0.15185546875,8.6212158203125,11.03973388671875,-7.45391845703125,-0.0697021484375,-0.3134765625,-0.0108642578125,11,0,152
2,24,1,75244,186,-0.23846435546875,0.97991943359375,-0.15185546875,8.6212158203125,11.03973388671875,-7.45391845703125,-0.0732421875,-0.317138671875,-0.000732421875,11,0,162
2,24,3,75245,186,1.9310302734375,-1.953125,0.44287109375,0.518798828125,10.8184814453125,138.12255859375,-0.5919189453125,0.448974609375,0.2335205078125,11,0,38
2,24,3,75303,187,0.54052734375,-0.89617919921875,0.122314453125,-3.12042236328125,-2.22015380859375,73.66943359375,-0.5723876953125,0.4488525390625,0.2410888671875,11,0,136
2,24,1,75304,187,-0.2908935546875,0.78839111328125,-0.20562744140625,10.23101806640625,24.25384521484375,-4.70733642578125,-0.0740966796875,-0.3175048828125,-0.004638671875,11,0,167
2,24,3,75349,188,0.11785888671875,-0.889892578125,-0.099609375,-11.45172119140625,-0.1373291015625,26.5045166015625,-0.5634765625,0.4478759765625,0.245361328125,11,0,76
2,24,1,75352,188,-0.06707763671875,0.78485107421875,-0.11431884765625,12.71820068359375,-7.10296630859375,8.758544921875,-0.0765380859375,-0.3221435546875,-0.0025634765625,11,0,180
2,24,3,75404,189,0.11785888671875,-0.889892578125,-0.099609375,-11.45172119140625,-0.1373291015625,26.5045166015625,-0.5499267578125,0.4437255859375,0.259033203125,11,0,241
2,24,1,75406,189,-0.06707763671875,0.78485107421875,-0.11431884765625,12.71820068359375,-7.10296630859375,8.758544921875,-0.0760498046875,-0.3197021484375,0.0029296875,11,0,206
2,24,1,75454,190,-0.29571533203125,1.02642822265625,-0.24267578125,8.91876220703125,-7.843017578125,5.68389892578125,-0.0767822265625,-0.3182373046875,0.0030517578125,11,0,80
2,24,3,75455,190,-0.060302734375,-1.04345703125,-0.22430419921875,-18.69964599609375,-13.2293701171875,38.665771484375,-0.5460205078125,0.4447021484375,0.2578125,11,0,9
2,24,1,75507,191,-0.32745361328125,0.92376708984375,-0.23828125,2.83050537109375,0.5035400390625,-0.34332275390625,-0.0765380859375,-0.318115234375,-0.00048828125,11,0,86
2,24,3,75509,191,0.2083740234375,-1.03009033203125,-0.03973388671875,-6.0882568359375,-14.5416259765625,-0.213623046875,-0.549072265625,0.44140625,0.262451171875,11,0,2
2,24,1,75561,192,-0.156005859375,0.8924560546875,-0.22125244140625,4.24957275390625,-11.05499267578125,0.46539306640625,-0.07861328125,-0.320068359375,-0.000732421875,11,0,34
2,24,3,75566,192,0.2083740234375,-1.03009033203125,-0.03973388671875,-6.0882568359375,-14.5416259765625,-0.213623046875,-0.552734375,0.4449462890625,0.2591552734375,11,0,126
2,24,3,75612,193,0.2003173828125,-0.93463134765625,-0.12030029296875,-3.15093994140625,-5.6915283203125,-11.39068603515625,-0.5511474609375,0.4388427734375,0.2615966796875,11,0,188
2,24,1,75613,193,-0.156005859375,0.8924560546875,-0.22125244140625,4.24957275390625,-11.05499267578125,0.46539306640625,-0.0755615234375,-0.317626953125,0.000732421875,11,0,96
2,24,1,75665,194,-0.26123046875,0.940673828125,-0.23553466796875,3.39508056640625,-2.55584716796875,-2.18963623046875,-0.0753173828125,-0.3192138671875,-0.0001220703125,11,0,178
2,24,3,75667,194,0.15460205078125,-1.008056640625,-0.0689697265625,-3.2501220703125,-3.326416015625,-5.1422119140625,-0.5496826171875,0.4420166015625,0.26171875,11,0,224
2,24,1,75719,195,-0.26123046875,0.940673828125,-0.23553466796875,3.39508056640625,-2.55584716796875,-2.18963623046875,-0.074951171875,-0.314208984375,0.0028076171875,11,0,115
2,24,3,75724,195,0.15460205078125,-1.008056640625,-0.0689697265625,-3.2501220703125,-3.326416015625,-5.1422119140625,-0.5521240234375,0.4385986328125,0.2607421875,11,0,189
2,24,1,75785,196,-0.25738525390625,0.9345703125,-0.23486328125,-0.06866455078125,4.09698486328125,-4.364013671875,-0.0748291015625,-0.3148193359375,0.00537109375,11,0,77
2,24,3,75786,196,0.14605712890625,-0.99798583984375,-0.11346435546875,-2.72369384765625,-5.4779052734375,-2.58636474609375,-0.5546875,0.4368896484375,0.2691650390625,11,0,19
2,24,1,75787,196,-0.25738525390625,0.9345703125,-0.23486328125,-0.06866455078125,4.09698486328125,-4.364013671875,-0.0748291015625,-0.3148193359375,0.00537109375,11,0,62
2,24,1,75822,197,-0.25225830078125,0.90032958984375,-0.218505859375,0.60272216796875,2.02178955078125,-4.47845458984375,-0.073974609375,-0.315185546875,0.0074462890625,11,0,65
2,24,3,75823,197,0.17425537109375,-0.97998046875,-0.08856201171875,-2.777099609375,-2.8076171875,-4.2877197265625,-0.5531005859375,0.4329833984375,0.2642822265625,11,0,158
2,24,1,75872,198,-0.25225830078125,0.90032958984375,-0.218505859375,0.60272216796875,2.02178955078125,-4.47845458984375,-0.0693359375,-0.3192138671875,0.0123291015625,11,0,63
2,24,3,75873,198,0.17425537109375,-0.97998046875,-0.08856201171875,-2.777099609375,-2.8076171875,-4.2877197265625,-0.55712890625,0.434326171875,0.268310546875,11,0,120
2,24,3,75931,199,0.171142578125,-0.994873046875,-0.1298828125,-1.7547607421875,-5.1116943359375,-4.0283203125,-0.551025390625,0.4290771484375,0.26904296875,11,0,233
2,24,1,75932,199,-0.26568603515625,0.9337158203125,-0.23114013671875,-0.1220703125,3.77655029296875,-4.26483154296875,-0.0716552734375,-0.3150634765625,0.0091552734375,11,0,17
2,24,3,75982,200,0.17431640625,-0.98016357421875,-0.1195068359375,-1.2054443359375,-5.34820556640625,-2.69317626953125,-0.5498046875,0.43212890625,0.2681884765625,11,0,191
2,24,1,75984,200,-0.2862548828125,0.9150390625,-0.23150634765625,0.67138671875,3.0670166015625,-3.12042236328125,-0.071044921875,-0.3114013671875,0.0087890625,11,0,81
2,24,3,76035,201,0.17431640625,-0.98016357421875,-0.1195068359375,-1.2054443359375,-5.34820556640625,-2.69317626953125,-0.55029296875,0.4365234375,0.2752685546875,11,0,138
2,24,1,76040,201,-0.2862548828125,0.9150390625,-0.23150634765625,0.67138671875,3.0670166015625,-3.12042236328125,-0.077392578125,-0.3131103515625,0.00732421875,11,0,225
2,24,1,76082,202,-0.25042724609375,0.908935546875,-0.2213134765625,3.41033935546875,-1.76239013671875,-1.24359130859375,-0.0701904296875,-0.312255859375,0.0103759765625,11,0,15
2,24,3,76083,202,0.17999267578125,-0.98065185546875,-0.125732421875,-0.4425048828125,-4.5623779296875,-2.95257568359375,-0.551513671875,0.4329833984375,0.269775390625,11,0,36
2,24,3,76142,203,0.16705322265625,-0.98260498046875,-0.13604736328125,-0.1068115234375,-6.82830810546875,-2.1820068359375,-0.5478515625,0.4315185546875,0.2757568359375,11,0,221
2,24,1,76144,203,-0.2713623046875,0.92095947265625,-0.23883056640625,4.33349609375,-3.48663330078125,-0.9918212890625,-0.07421875,-0.31396484375,0.0091552734375,11,0,123
2,24,1,76188,204,-0.267578125,0.9215087890625,-0.2384033203125,4.5928955078125,-2.288818359375,-1.57928466796875,-0.0721435546875,-0.3094482421875,0.010009765625,11,0,242
2,24,3,76190,204,0.16705322265625,-0.98260498046875,-0.13604736328125,-0.1068115234375,-6.82830810546875,-2.1820068359375,-0.551025390625,0.433349609375,0.27880859375,11,0,141
2,24,3,76239,205,0.1741943359375,-0.97967529296875,-0.13226318359375,0.80108642578125,-6.9732666015625,-1.38092041015625,-0.5509033203125,0.431396484375,0.27197265625,11,0,49
2,24,1,76240,205,-0.267578125,0.9215087890625,-0.2384033203125,4.5928955078125,-2.288818359375,-1.57928466796875,-0.0732421875,-0.3101806640625,0.013916015625,11,0,220
2,24,3,76292,206,0.16217041015625,-0.98333740234375,-0.14019775390625,2.14385986328125,-7.77435302734375,-1.03759765625,-0.5462646484375,0.43017578125,0.2767333984375,11,0,35
2,24,1,76304,206,-0.26220703125,0.916748046875,-0.2564697265625,4.95147705078125,-4.1961669921875,-2.1820068359375,-0.0716552734375,-0.3096923828125,0.0128173828125,11,0,40
2,24,3,76344,207,0.16217041015625,-0.98333740234375,-0.14019775390625,2.14385986328125,-7.77435302734375,-1.03759765625,-0.5452880859375,0.434326171875,0.2786865234375,11,0,196
2,24,1,76345,207,-0.26220703125,0.916748046875,-0.2564697265625,4.95147705078125,-4.1961669921875,-2.1820068359375,-0.068115234375,-0.3126220703125,0.0189208984375,11,0,246
2,24,1,76397,208,-0.26837158203125,0.9132080078125,-0.247802734375,4.1656494140625,-2.8228759765625,-2.899169921875,-0.072021484375,-0.3125,0.0194091796875,11,0,115
2,24,3,76398,208,0.15338134765625,-0.9886474609375,-0.13360595703125,3.76129150390625,-7.24029541015625,-0.17547607421875,-0.5440673828125,0.4322509765625,0.2752685546875,11,0,12
2,24,1,76457,209,-0.26348876953125,0.917236328125,-0.26043701171875,3.68499755859375,-2.37274169921875,-2.89154052734375,-0.067138671875,-0.3082275390625,0.012451171875,11,0,208
2,24,3,76458,209,0.16033935546875,-0.98443603515625,-0.13568115234375,4.82177734375,-6.58416748046875,-1.220703125,-0.5447998046875,0.4327392578125,0.2763671875,11,0,0
2,24,3,76501,210,0.16033935546875,-0.98443603515625,-0.13568115234375,4.82177734375,-6.58416748046875,-1.220703125,-0.5433349609375,0.4268798828125,0.2744140625,11,0,16
2,24,1,76506,210,-0.26348876953125,0.917236328125,-0.26043701171875,3.68499755859375,-2.37274169921875,-2.89154052734375,-0.0697021484375,-0.31005859375,0.0159912109375,11,0,11
2,24,1,76553,211,-0.26556396484375,0.924072265625,-0.26104736328125,3.631591796875,-3.08990478515625,-1.9683837890625,-0.06884765625,-0.307861328125,0.009033203125,11,0,176
2,24,3,76555,211,0.164794921875,-0.984130859375,-0.11798095703125,5.65338134765625,-5.645751953125,-2.410888671875,-0.5460205078125,0.43505859375,0.2730712890625,11,0,77
2,24,1,76561,211,-0.26556396484375,0.924072265625,-0.26104736328125,3.631591796875,-3.08990478515625,-1.9683837890625,-0.06884765625,-0.307861328125,0.009033203125,11,0,234
2,24,1,76610,212,-0.2589111328125,0.91046142578125,-0.25787353515625,3.692626953125,-3.692626953125,-1.6937255859375,-0.069580078125,-0.3074951171875,0.0128173828125,11,0,239
2,24,3,76611,212,0.15948486328125,-0.9832763671875,-0.1241455078125,5.13458251953125,-4.150390625,-2.31170654296875,-0.5421142578125,0.435791015625,0.27001953125,11,0,237
2,24,3,76661,213,0.15948486328125,-0.9832763671875,-0.1241455078125,5.13458251953125,-4.150390625,-2.31170654296875,-0.54052734375,0.432861328125,0.2747802734375,11,0,27
2,24,1,76665,213,-0.2618408203125,0.9168701171875,-0.25079345703125,3.692626953125,-3.692626953125,-1.6937255859375,-0.071044921875,-0.3045654296875,0.015869140625,11,0,141
2,24,3,76710,214,0.1614990234375,-0.9833984375,-0.11981201171875,4.791259765625,-3.94439697265625,-0.69427490234375,-0.5428466796875,0.4322509765625,0.2701416015625,11,0,117
2,24,1,76711,214,-0.2618408203125,0.9168701171875,-0.25079345703125,3.76129150390625,-4.45556640625,-1.57928466796875,-0.06884765625,-0.306640625,0.0167236328125,11,0,18
2,24,3,76764,215,0.147216796875,-0.98968505859375,-0.119140625,4.57000732421875,-4.4403076171875,-0.58746337890625,-0.53955078125,0.4344482421875,0.2757568359375,11,0,133
2,24,1,76766,215,-0.257080078125,0.9195556640625,-0.26068115234375,3.631591796875,-6.23321533203125,-0.96893310546875,-0.0667724609375,-0.30859375,0.012451171875,11,0,210
2,24,3,76815,216,0.147216796875,-0.98968505859375,-0.119140625,4.57000732421875,-4.4403076171875,-0.58746337890625,-0.5433349609375,0.432373046875,0.268310546875,11,0,88
2,24,1,76816,216,-0.2542724609375,0.9171142578125,-0.25677490234375,3.692626953125,-6.96563720703125,-0.42724609375,-0.064697265625,-0.3115234375,0.0147705078125,11,0,15
2,24,1,76867,217,-0.2542724609375,0.9171142578125,-0.25677490234375,3.692626953125,-6.96563720703125,-0.42724609375,-0.06982421875,-0.3131103515625,0.013671875,11,0,175
2,24,3,76869,217,0.14752197265625,-0.98797607421875,-0.119140625,3.65447998046875,-4.21905517578125,-0.51116943359375,-0.535400390625,0.4302978515625,0.264404296875,11,0,222
2,24,1,76919,218,-0.25152587890625,0.91839599609375,-0.25250244140625,3.51715087890625,-6.69097900390625,-0.06866455078125,-0.0689697265625,-0.308837890625,0.0155029296875,11,0,12
2,24,3,76920,218,0.14739990234375,-0.98748779296875,-0.11578369140625,3.2501220703125,-4.37164306640625,-0.6866455078125,-0.5380859375,0.4383544921875,0.27392578125,11,0,45
2,24,3,76978,219,0.14739990234375,-0.98748779296875,-0.11578369140625,3.2501220703125,-4.37164306640625,-0.6866455078125,-0.5386962890625,0.43408203125,0.2742919921875,11,0,134
2,24,1,76979,219,-0.254638671875,0.92059326171875,-0.2596435546875,3.39508056640625,-6.38580322265625,-0.11444091796875,-0.067626953125,-0.3111572265625,0.01806640625,11,0,60
2,24,1,77024,220,-0.254638671875,0.92059326171875,-0.2596435546875,3.39508056640625,-6.38580322265625,-0.11444091796875,-0.068115234375,-0.308349609375,0.0181884765625,11,0,219
2,24,3,77025,220,0.139892578125,-0.99072265625,-0.1163330078125,2.99072265625,-4.8828125,-1.21307373046875,-0.5400390625,0.43212890625,0.27392578125,11,0,62
2,24,3,77077,221,0.14263916015625,-0.98883056640625,-0.11846923828125,2.83050537109375,-4.6539306640625,-2.38800048828125,-0.5401611328125,0.4339599609375,0.2669677734375,11,0,80
2,24,1,77078,221,-0.2528076171875,0.91357421875,-0.25531005859375,2.99072265625,-4.547119140625,-0.885009765625,-0.06982421875,-0.3077392578125,0.019287109375,11,0,201
2,24,3,77130,222,0.14263916015625,-0.98883056640625,-0.11846923828125,2.83050537109375,-4.6539306640625,-2.38800048828125,-0.5386962890625,0.434814453125,0.2666015625,11,0,144
2,24,1,77132,222,-0.2528076171875,0.91357421875,-0.25531005859375,2.99072265625,-4.547119140625,-0.885009765625,-0.068603515625,-0.3089599609375,0.0196533203125,11,0,189
2,24,1,77181,223,-0.2625732421875,0.91571044921875,-0.2509765625,2.8076171875,-3.1585693359375,-1.25885009765625,-0.068359375,-0.30859375,0.020263671875,11,0,116
2,24,3,77182,223,0.1416015625,-0.989990234375,-0.11932373046875,2.79998779296875,-5.36346435546875,-2.63214111328125,-0.5401611328125,0.436279296875,0.267822265625,11,0,15
2,24,1,77239,224,-0.26629638671875,0.91583251953125,-0.2581787109375,2.61688232421875,-2.99835205078125,-1.1749267578125,-0.0670166015625,-0.3074951171875,0.019775390625,11,0,203
2,24,3,77244,224,0.1402587890625,-0.98614501953125,-0.1212158203125,2.63214111328125,-5.8135986328125,-2.76947021484375,-0.5343017578125,0.4327392578125,0.2730712890625,11,0,0
2,24,3,77285,225,0.1402587890625,-0.98614501953125,-0.1212158203125,2.63214111328125,-5.8135986328125,-2.76947021484375,-0.5386962890625,0.43408203125,0.2734375,11,0,5
2,24,1,77286,225,-0.263916015625,0.914794921875,-0.25518798828125,3.19671630859375,-4.06646728515625,-1.0223388671875,-0.0699462890625,-0.306884765625,0.012939453125,11,0,254
2,24,3,77339,226,0.13800048828125,-0.9906005859375,-0.1236572265625,2.49481201171875,-5.34820556640625,-2.41851806640625,-0.5400390625,0.4361572265625,0.2794189453125,11,0,208
2,24,1,77347,226,-0.263916015625,0.914794921875,-0.25518798828125,3.19671630859375,-4.06646728515625,-1.0223388671875,-0.0716552734375,-0.3114013671875,0.0159912109375,11,0,157
2,24,3,77390,227,0.1419677734375,-0.98773193359375,-0.12115478515625,2.38800048828125,-4.43267822265625,-2.7008056640625,-0.5438232421875,0.4345703125,0.27392578125,11,0,255
2,24,1,77392,227,-0.2625732421875,0.91229248046875,-0.25616455078125,3.47900390625,-4.3182373046875,-0.91552734375,-0.066650390625,-0.3089599609375,0.0167236328125,11,0,47
2,24,1,77449,228,-0.26263427734375,0.915771484375,-0.25811767578125,3.72314453125,-4.3792724609375,-0.48065185546875,-0.06787109375,-0.31103515625,0.0145263671875,11,0,66
2,24,3,77452,228,0.1419677734375,-0.98773193359375,-0.12115478515625,2.38800048828125,-4.43267822265625,-2.7008056640625,-0.53759765625,0.43310546875,0.27587890625,11,0,114
2,24,1,77495,229,-0.26263427734375,0.915771484375,-0.25811767578125,3.72314453125,-4.3792724609375,-0.48065185546875,-0.06640625,-0.30908203125,0.0103759765625,11,0,231
2,24,3,77502,229,0.14166259765625,-0.98834228515625,-0.12640380859375,2.15911865234375,-4.60052490234375,-2.41851806640625,-0.54345703125,0.4376220703125,0.276123046875,11,0,218
2,24,1,77556,230,-0.26507568359375,0.91400146484375,-0.2593994140625,4.00543212890625,-5.1727294921875,-0.12969970703125,-0.06884765625,-0.3131103515625,0.0130615234375,11,0,138
2,24,3,77557,230,0.13970947265625,-0.98797607421875,-0.1268310546875,2.12860107421875,-4.55474853515625,-2.3651123046875,-0.542724609375,0.4346923828125,0.27734375,11,0,32
2,24,3,77601,231,0.13970947265625,-0.98797607421875,-0.1268310546875,2.12860107421875,-4.55474853515625,-2.3651123046875,-0.5430908203125,0.4339599609375,0.2735595703125,11,0,202
2,24,1,77604,231,-0.26654052734375,0.91259765625,-0.25811767578125,4.0130615234375,-5.0201416015625,-0.152587890625,-0.07080078125,-0.311767578125,0.014892578125,11,0,62
2,24,3,77653,232,0.13958740234375,-0.98956298828125,-0.12786865234375,2.01416015625,-4.47845458984375,-2.349853515625,-0.538818359375,0.435302734375,0.307373046875,11,0,151
2,24,1,77654,232,-0.26654052734375,0.91259765625,-0.25811767578125,4.0130615234375,-5.0201416015625,-0.152587890625,-0.06591796875,-0.3077392578125,0.0106201171875,11,0,39
2,24,1,77704,233,-0.26727294921875,0.9129638671875,-0.26220703125,4.40216064453125,-5.4931640625,-0.274658203125,-0.067138671875,-0.30908203125,0.0084228515625,11,0,114
2,24,3,77708,233,0.14068603515625,-0.9891357421875,-0.1302490234375,2.14385986328125,-4.44793701171875,-2.44140625,-0.5413818359375,0.4359130859375,0.27490234375,11,0,64
2,24,1,77756,234,-0.26434326171875,0.91455078125,-0.25775146484375,4.608154296875,-5.62286376953125,-0.3662109375,-0.0679931640625,-0.3099365234375,0.019287109375,11,0,13
2,24,3,77757,234,0.14068603515625,-0.9891357421875,-0.1302490234375,2.14385986328125,-4.44793701171875,-2.44140625,-0.5418701171875,0.4344482421875,0.2728271484375,11,0,2
2,24,1,77809,235,-0.26434326171875,0.91455078125,-0.25775146484375,4.608154296875,-5.62286376953125,-0.3662109375,-0.0711669921875,-0.3096923828125,0.017333984375,11,0,207
2,24,3,77810,235,0.14117431640625,-0.98944091796875,-0.12921142578125,2.38800048828125,-4.2266845703125,-2.4566650390625,-0.539794921875,0.4351806640625,0.27099609375,11,0,1
2,24,1,77861,236,-0.2662353515625,0.9140625,-0.26300048828125,4.82177734375,-5.6610107421875,-0.42724609375,-0.0673828125,-0.304443359375,0.0196533203125,11,0,26
2,24,3,77863,236,0.145263671875,-0.985595703125,-0.12689208984375,2.49481201171875,-4.241943359375,-2.593994140625,-0.5406494140625,0.4337158203125,0.27490234375,11,0,0
2,24,3,77914,237,0.145263671875,-0.985595703125,-0.12689208984375,2.49481201171875,-4.241943359375,-2.593994140625,-0.5386962890625,0.4305419921875,0.2757568359375,11,0,178
2,24,1,77915,237,-0.26788330078125,0.9102783203125,-0.26129150390625,4.82940673828125,-5.66864013671875,-0.457763671875,-0.067626953125,-0.3099365234375,0.0159912109375,11,0,102
2,24,3,77967,238,0.13922119140625,-0.987548828125,-0.1304931640625,2.655029296875,-4.49371337890625,-2.5177001953125,-0.5390625,0.432861328125,0.2716064453125,11,0,249
2,24,1,77970,238,-0.26788330078125,0.9102783203125,-0.26129150390625,4.82940673828125,-5.66864013671875,-0.457763671875,-0.06787109375,-0.3089599609375,0.0213623046875,11,0,236
2,24,3,78018,239,0.13775634765625,-0.988525390625,-0.12896728515625,2.95257568359375,-4.58526611328125,-2.7313232421875,-0.542724609375,0.4326171875,0.2674560546875,11,0,91
2,24,1,78019,239,-0.26416015625,0.91241455078125,-0.26422119140625,4.4708251953125,-5.37109375,-0.3814697265625,-0.06689453125,-0.3079833984375,0.0189208984375,11,0,158
2,24,1,78070,240,-0.26593017578125,0.91253662109375,-0.271484375,4.4097900390625,-5.40924072265625,-0.18310546875,-0.0701904296875,-0.31103515625,0.013916015625,11,0,71
2,24,3,78071,240,0.13775634765625,-0.988525390625,-0.12896728515625,2.95257568359375,-4.58526611328125,-2.7313232421875,-0.535400390625,0.4344482421875,0.2762451171875,11,0,48
2,24,3,78125,241,0.13958740234375,-0.9886474609375,-0.1285400390625,3.01361083984375,-4.00543212890625,-3.07464599609375,-0.542236328125,0.4384765625,0.2757568359375,11,0,29
2,24,1,78130,241,-0.26593017578125,0.91253662109375,-0.271484375,4.4097900390625,-5.40924072265625,-0.18310546875,-0.069091796875,-0.310546875,0.015625,11,0,144
2,24,1,78176,242,-0.263916015625,0.912109375,-0.26922607421875,4.486083984375,-4.52423095703125,-0.396728515625,-0.071533203125,-0.311767578125,0.017578125,11,0,209
2,24,3,78177,242,0.1414794921875,-0.98858642578125,-0.127685546875,3.30352783203125,-3.9520263671875,-3.2501220703125,-0.53955078125,0.4359130859375,0.273193359375,11,0,38
2,24,3,78227,243,0.1414794921875,-0.98858642578125,-0.127685546875,3.30352783203125,-3.9520263671875,-3.2501220703125,-0.5423583984375,0.433349609375,0.2747802734375,11,0,32
2,24,1,78235,243,-0.26348876953125,0.912841796875,-0.26898193359375,4.15802001953125,-4.0283203125,-0.75531005859375,-0.067626953125,-0.3123779296875,0.017578125,11,0,157
2,24,1,78282,244,-0.26348876953125,0.912841796875,-0.26898193359375,4.15802001953125,-4.0283203125,-0.75531005859375,-0.0667724609375,-0.3106689453125,0.01806640625,11,0,66
2,24,3,78284,244,0.1453857421875,-0.98699951171875,-0.123779296875,3.39508056640625,-4.17327880859375,-3.0517578125,-0.54150390625,0.4332275390625,0.273681640625,11,0,11
2,24,1,78333,245,-0.26593017578125,0.9090576171875,-0.26971435546875,3.4027099609375,-3.56292724609375,-0.90789794921875,-0.068359375,-0.3106689453125,0.0179443359375,11,0,148
2,24,3,78338,245,0.1358642578125,-0.98565673828125,-0.1292724609375,3.265380859375,-4.67681884765625,-2.67791748046875,-0.5391845703125,0.4371337890625,0.26806640625,11,0,174
2,24,3,78385,246,0.1358642578125,-0.98565673828125,-0.1292724609375,3.265380859375,-4.67681884765625,-2.67791748046875,-0.5377197265625,0.436279296875,0.272705078125,11,0,78
2,24,1,78388,246,-0.26593017578125,0.91058349609375,-0.272216796875,2.8839111328125,-3.509521484375,-0.823974609375,-0.0701904296875,-0.312255859375,0.0155029296875,11,0,116
2,24,3,78437,247,0.14007568359375,-0.98779296875,-0.12689208984375,3.3721923828125,-4.79888916015625,-2.35748291015625,-0.5401611328125,0.43798828125,0.275146484375,11,0,134
2,24,1,78438,247,-0.26593017578125,0.91058349609375,-0.272216796875,2.8839111328125,-3.509521484375,-0.823974609375,-0.0692138671875,-0.309326171875,0.015869140625,11,0,78
2,24,1,78490,248,-0.2642822265625,0.90771484375,-0.27392578125,3.0975341796875,-3.7994384765625,-0.84686279296875,-0.0684814453125,-0.3092041015625,0.0184326171875,11,0,174
2,24,3,78491,248,0.14013671875,-0.98846435546875,-0.12554931640625,3.570556640625,-4.79888916015625,-2.62451171875,-0.539306640625,0.4384765625,0.2718505859375,11,0,62
2,24,1,78544,249,-0.26318359375,0.909423828125,-0.270751953125,3.6163330078125,-3.6468505859375,-0.86212158203125,-0.0697021484375,-0.306640625,0.0133056640625,11,0,98
2,24,3,78545,249,0.14013671875,-0.98846435546875,-0.12554931640625,3.570556640625,-4.79888916015625,-2.62451171875,-0.539306640625,0.437255859375,0.2684326171875,11,0,19
2,24,1,78546,249,-0.26318359375,0.909423828125,-0.270751953125,3.6163330078125,-3.6468505859375,-0.86212158203125,-0.0697021484375,-0.306640625,0.0133056640625,11,0,17
2,24,3,78597,250,0.14044189453125,-0.98675537109375,-0.125244140625,3.22723388671875,-4.6234130859375,-2.84576416015625,-0.53759765625,0.4407958984375,0.2718505859375,11,0,102
2,24,1,78602,250,-0.26318359375,0.909423828125,-0.270751953125,3.6163330078125,-3.6468505859375,-0.86212158203125,-0.0687255859375,-0.3079833984375,0.0157470703125,11,0,198
2,24,1,78648,251,-0.265380859375,0.91009521484375,-0.275390625,3.6773681640625,-3.83758544921875,-0.54931640625,-0.0667724609375,-0.308837890625,0.0233154296875,11,0,155
2,24,3,78649,251,0.14154052734375,-0.98809814453125,-0.12384033203125,2.96783447265625,-4.7149658203125,-2.532958984375,-0.5374755859375,0.4378662109375,0.2733154296875,11,0,73
2,24,3,78699,252,0.14154052734375,-0.98809814453125,-0.12384033203125,2.96783447265625,-4.7149658203125,-2.532958984375,-0.54052734375,0.43505859375,0.273681640625,11,0,70
2,24,1,78700,252,-0.26416015625,0.910888671875,-0.274169921875,3.6773681640625,-4.40216064453125,-0.274658203125,-0.0689697265625,-0.3094482421875,0.015869140625,11,0,183
2,24,3,78751,253,0.1435546875,-0.98797607421875,-0.12353515625,2.98309326171875,-4.55474853515625,-2.15911865234375,-0.5404052734375,0.4349365234375,0.272705078125,11,0,93
2,24,1,78752,253,-0.26416015625,0.910888671875,-0.274169921875,3.6773681640625,-4.40216064453125,-0.274658203125,-0.06787109375,-0.3099365234375,0.015869140625,11,0,95
2,24,1,78804,254,-0.2662353515625,0.91168212890625,-0.27471923828125,3.36456298828125,-4.8370361328125,-0.18310546875,-0.06787109375,-0.307861328125,0.021484375,11,0,130
2,24,3,78806,254,0.1365966796875,-0.9881591796875,-0.128173828125,3.173828125,-4.7454833984375,-1.678466796875,-0.5382080078125,0.43408203125,0.270751953125,11,0,208
2,24,3,78858,255,0.1365966796875,-0.9881591796875,-0.128173828125,3.173828125,-4.7454833984375,-1.678466796875,-0.53857421875,0.4404296875,0.2706298828125,11,0,83
2,24,1,78859,255,-0.26397705078125,0.9095458984375,-0.276123046875,3.0975341796875,-5.60760498046875,-0.3509521484375,-0.0699462890625,-0.3095703125,0.0206298828125,11,0,202
2,24,3,78913,256,0.13482666015625,-0.98919677734375,-0.124755859375,3.11279296875,-4.67681884765625,-1.800537109375,-0.5382080078125,0.4345703125,0.268798828125,11,0,227
2,24,1,78918,256,-0.26397705078125,0.9095458984375,-0.276123046875,3.0975341796875,-5.60760498046875,-0.3509521484375,-0.0716552734375,-0.307861328125,0.0203857421875,11,0,40
2,24,3,78961,257,0.13616943359375,-0.98907470703125,-0.12579345703125,2.75421142578125,-4.61578369140625,-1.68609619140625,-0.53759765625,0.4361572265625,0.2720947265625,11,0,249
2,24,1,78962,257,-0.264404296875,0.91259765625,-0.27423095703125,2.5787353515625,-5.51605224609375,-0.66375732421875,-0.0709228515625,-0.30615234375,0.0162353515625,11,0,230
2,24,1,79013,258,-0.2659912109375,0.9093017578125,-0.27203369140625,2.349853515625,-5.5694580078125,-0.75531005859375,-0.0677490234375,-0.31005859375,0.0184326171875,11,0,197
2,24,3,79014,258,0.13616943359375,-0.98907470703125,-0.12579345703125,2.75421142578125,-4.61578369140625,-1.68609619140625,-0.537109375,0.4393310546875,0.2767333984375,11,0,5
2,24,1,79065,259,-0.2659912109375,0.9093017578125,-0.27203369140625,2.349853515625,-5.5694580078125,-0.75531005859375,-0.0677490234375,-0.31103515625,0.0152587890625,11,0,25
2,24,3,79066,259,0.13299560546875,-0.98919677734375,-0.1248779296875,2.64739990234375,-4.82940673828125,-1.708984375,-0.5328369140625,0.4339599609375,0.2738037109375,11,0,108
2,24,1,79121,260,-0.2705078125,0.910888671875,-0.273193359375,1.91497802734375,-5.30242919921875,-0.823974609375,-0.067138671875,-0.30859375,0.0194091796875,11,0,180
2,24,3,79123,260,0.15167236328125,-0.99151611328125,-0.1239013671875,2.67791748046875,-4.1046142578125,-0.7781982421875,-0.5382080078125,0.4365234375,0.272216796875,11,0,161
2,24,1,79169,261,-0.2716064453125,0.91192626953125,-0.26910400390625,1.678466796875,-4.974365234375,-0.7781982421875,-0.0682373046875,-0.3089599609375,0.017822265625,11,0,134
2,24,3,79170,261,0.15167236328125,-0.99151611328125,-0.1239013671875,2.67791748046875,-4.1046142578125,-0.7781982421875,-0.5361328125,0.439208984375,0.270263671875,11,0,56
2,24,1,79224,262,-0.2716064453125,0.91192626953125,-0.26910400390625,1.678466796875,-4.974365234375,-0.7781982421875,-0.0718994140625,-0.3092041015625,0.0162353515625,11,0,78
2,24,3,79226,262,0.12744140625,-0.99468994140625,-0.113037109375,3.66973876953125,-2.4566650390625,-0.4425048828125,-0.5374755859375,0.436279296875,0.2694091796875,11,0,19
2,24,1,79277,263,-0.273193359375,0.90863037109375,-0.26416015625,1.93023681640625,-5.40924072265625,-0.43487548828125,-0.07177734375,-0.3040771484375,0.016845703125,11,0,40
2,24,3,79278,263,0.13134765625,-0.99261474609375,-0.116943359375,6.84356689453125,-7.59124755859375,-2.8533935546875,-0.5335693359375,0.44189453125,0.269775390625,11,0,243
2,24,1,79326,264,-0.26715087890625,0.90484619140625,-0.26568603515625,2.3651123046875,-5.9356689453125,0.20599365234375,-0.0716552734375,-0.306640625,0.0133056640625,11,0,225
2,24,3,79328,264,0.13134765625,-0.99261474609375,-0.116943359375,6.84356689453125,-7.59124755859375,-2.8533935546875,-0.5272216796875,0.44287109375,0.2630615234375,11,0,9
2,24,1,79381,265,-0.26715087890625,0.90484619140625,-0.26568603515625,2.3651123046875,-5.9356689453125,0.20599365234375,-0.0693359375,-0.3074951171875,0.014404296875,11,0,14
2,24,3,79382,265,0.11956787109375,-0.991943359375,-0.12109375,5.91278076171875,-6.12640380859375,-1.52587890625,-0.526123046875,0.4378662109375,0.2642822265625,11,0,73
2,24,1,79431,266,-0.26971435546875,0.90887451171875,-0.2613525390625,2.74658203125,-5.523681640625,0.41961669921875,-0.072265625,-0.3048095703125,0.0118408203125,11,0,245
2,24,3,79432,266,0.11651611328125,-0.9906005859375,-0.1202392578125,4.79888916015625,-4.78363037109375,-0.9613037109375,-0.526123046875,0.4420166015625,0.265380859375,11,0,80
2,24,1,79486,267,-0.2659912109375,0.90289306640625,-0.26287841796875,3.11279296875,-5.2947998046875,0.2593994140625,-0.0726318359375,-0.3109130859375,0.01318359375,11,0,148
2,24,3,79487,267,0.11651611328125,-0.9906005859375,-0.1202392578125,4.79888916015625,-4.78363037109375,-0.9613037109375,-0.53076171875,0.443603515625,0.267333984375,11,0,51
2,24,1,79538,268,-0.26416015625,0.91943359375,-0.2659912109375,3.2501220703125,-4.99725341796875,0.0762939453125,-0.0721435546875,-0.3074951171875,0.0133056640625,11,0,65
2,24,3,79539,268,0.12701416015625,-0.99371337890625,-0.10955810546875,4.7454833984375,-5.50079345703125,-2.288818359375,-0.52734375,0.441162109375,0.2642822265625,11,0,192
2,24,1,79589,269,-0.26416015625,0.91943359375,-0.2659912109375,3.2501220703125,-4.99725341796875,0.0762939453125,-0.0672607421875,-0.3076171875,0.01318359375,11,0,134
2,24,3,79591,269,0.13275146484375,-0.9971923828125,-0.09234619140625,5.59234619140625,-8.0718994140625,-4.55474853515625,-0.53369140625,0.43994140625,0.2672119140625,11,0,103
2,24,1,79642,270,-0.25897216796875,0.92236328125,-0.2703857421875,2.6702880859375,-4.2266845703125,-0.4730224609375,-0.0675048828125,-0.3074951171875,0.0205078125,11,0,134
2,24,3,79645,270,0.13275146484375,-0.9971923828125,-0.09234619140625,5.59234619140625,-8.0718994140625,-4.55474853515625,-0.5313720703125,0.4390869140625,0.26513671875,11,0,14
2,24,3,79694,271,0.1419677734375,-0.9971923828125,-0.0968017578125,6.34002685546875,-9.60540771484375,-5.0048828125,-0.529541015625,0.440673828125,0.2652587890625,11,0,157
2,24,1,79699,271,-0.25897216796875,0.92236328125,-0.2703857421875,2.6702880859375,-4.2266845703125,-0.4730224609375,-0.06689453125,-0.3089599609375,0.015625,11,0,73
2,24,1,79746,272,-0.260009765625,0.91534423828125,-0.26263427734375,1.68609619140625,-2.73895263671875,-1.48773193359375,-0.0694580078125,-0.30859375,0.01708984375,11,0,239
2,24,3,79747,272,0.10791015625,-0.99169921875,-0.10174560546875,5.859375,-9.368896484375,-2.960205078125,-0.526123046875,0.4437255859375,0.2672119140625,11,0,6
2,24,1,79800,273,-0.2586669921875,0.90264892578125,-0.2655029296875,0.5645751953125,-1.12152099609375,-2.69317626953125,-0.0716552734375,-0.3033447265625,0.0185546875,11,0,17
2,24,3,79801,273,0.10791015625,-0.99169921875,-0.10174560546875,5.859375,-9.368896484375,-2.960205078125,-0.5238037109375,0.444580078125,0.267578125,11,0,157
2,24,1,79851,274,-0.2586669921875,0.90264892578125,-0.2655029296875,0.5645751953125,-1.12152099609375,-2.69317626953125,-0.066162109375,-0.309326171875,0.018798828125,11,0,22
2,24,3,79854,274,0.10223388671875,-0.99298095703125,-0.09735107421875,5.9356689453125,-12.20703125,-2.84576416015625,-0.5284423828125,0.443115234375,0.2598876953125,11,0,17
2,24,3,79905,275,0.11676025390625,-0.99530029296875,-0.08306884765625,6.37054443359375,-9.04083251953125,-4.57763671875,-0.526123046875,0.443359375,0.25830078125,11,0,224
2,24,1,79906,275,-0.26959228515625,0.89825439453125,-0.27215576171875,1.36566162109375,-0.57220458984375,-2.99072265625,-0.06787109375,-0.305419921875,0.017822265625,11,0,149
2,24,3,79955,276,0.11676025390625,-0.99530029296875,-0.08306884765625,6.37054443359375,-9.04083251953125,-4.57763671875,-0.5289306640625,0.4476318359375,0.2623291015625,11,0,163
2,24,1,79956,276,-0.271728515625,0.902587890625,-0.27142333984375,3.7384033203125,-1.708984375,-2.5177001953125,-0.070556640625,-0.30810546875,0.01806640625,11,0,181
2,24,1,80009,277,-0.271728515625,0.902587890625,-0.27142333984375,3.7384033203125,-1.708984375,-2.5177001953125,-0.0703125,-0.3048095703125,0.02001953125,11,0,63
2,24,3,80010,277,0.150634765625,-0.998046875,-0.0894775390625,5.71441650390625,-5.9051513671875,-6.46209716796875,-0.53076171875,0.447509765625,0.2589111328125,11,0,159
2,24,3,80063,278,-0.03106689453125,-0.9925537109375,-0.19342041015625,4.7760009765625,-4.39453125,-8.90350341796875,-0.5357666015625,0.4449462890625,0.2574462890625,11,0,49
2,24,1,80064,278,-0.28192138671875,0.91375732421875,-0.27996826171875,6.0577392578125,-3.36456298828125,-1.47247314453125,-0.0679931640625,-0.307861328125,0.01611328125,11,0,216
2,24,3,80113,279,-0.03106689453125,-0.9925537109375,-0.19342041015625,4.7760009765625,-4.39453125,-8.90350341796875,-0.5391845703125,0.442626953125,0.261474609375,11,0,211
2,24,1,80114,279,-0.27471923828125,0.917236328125,-0.26165771484375,7.16400146484375,-7.07244873046875,-0.26702880859375,-0.0697021484375,-0.3046875,0.02099609375,11,0,83
2,24,1,80164,280,-0.25823974609375,0.92938232421875,-0.26300048828125,4.75311279296875,-9.49859619140625,1.4495849609375,-0.068359375,-0.3072509765625,0.0145263671875,11,0,205
2,24,3,80166,280,0.24322509765625,-0.9798583984375,-0.05078125,1.15203857421875,5.95855712890625,-14.2669677734375,-0.53955078125,0.44482421875,0.2630615234375,11,0,235
2,24,3,80221,281,0.16912841796875,-0.99200439453125,-0.0799560546875,-6.73675537109375,14.1754150390625,2.13623046875,-0.5384521484375,0.43896484375,0.266845703125,11,0,187
2,24,1,80222,281,-0.25823974609375,0.92938232421875,-0.26300048828125,4.75311279296875,-9.49859619140625,1.4495849609375,-0.0689697265625,-0.3094482421875,0.01416015625,11,0,250
2,24,3,80268,282,0.16912841796875,-0.99200439453125,-0.0799560546875,-6.73675537109375,14.1754150390625,2.13623046875,-0.538330078125,0.439697265625,0.266357421875,11,0,222
2,24,1,80269,282,-0.26800537109375,0.9249267578125,-0.24969482421875,2.288818359375,-10.955810546875,3.4637451171875,-0.0687255859375,-0.3128662109375,0.014404296875,11,0,142
2,24,1,80323,283,-0.2567138671875,0.91705322265625,-0.24169921875,-0.579833984375,-10.78033447265625,3.45611572265625,-0.07275390625,-0.3096923828125,0.0057373046875,11,0,118
2,24,3,80327,283,0.14398193359375,-0.99407958984375,-0.10797119140625,-5.6304931640625,5.7220458984375,7.25555419921875,-0.5384521484375,0.4383544921875,0.2674560546875,11,0,235
2,24,1,80373,284,-0.2567138671875,0.91705322265625,-0.24169921875,-0.579833984375,-10.78033447265625,3.45611572265625,-0.0709228515625,-0.3106689453125,0.004638671875,11,0,156
2,24,3,80374,284,0.14141845703125,-0.978515625,-0.115966796875,-1.8768310546875,2.3956298828125,2.66265869140625,-0.5377197265625,0.4395751953125,0.2664794921875,11,0,123
2,24,1,80375,284,-0.2567138671875,0.91705322265625,-0.24169921875,-0.579833984375,-10.78033447265625,3.45611572265625,-0.0709228515625,-0.3106689453125,0.004638671875,11,0,239
2,24,3,80427,285,0.14141845703125,-0.978515625,-0.115966796875,-1.8768310546875,2.3956298828125,2.66265869140625,-0.5350341796875,0.4375,0.2733154296875,11,0,185
2,24,1,80434,285,-0.2445068359375,0.898681640625,-0.24310302734375,-1.82342529296875,-8.9569091796875,2.3040771484375,-0.070068359375,-0.3140869140625,0.0067138671875,11,0,169
2,24,3,80478,286,0.13330078125,-0.9940185546875,-0.11968994140625,-1.01470947265625,-2.20489501953125,0.02288818359375,-0.5369873046875,0.4322509765625,0.271484375,11,0,34
2,24,1,80479,286,-0.2445068359375,0.898681640625,-0.24310302734375,-1.82342529296875,-8.9569091796875,2.3040771484375,-0.0697021484375,-0.310546875,0.0064697265625,11,0,18
2,24,1,80531,287,-0.25946044921875,0.91058349609375,-0.25677490234375,0.1068115234375,-5.36346435546875,1.373291015625,-0.0684814453125,-0.3148193359375,0.0042724609375,11,0,160
2,24,3,80532,287,0.13140869140625,-0.9864501953125,-0.121826171875,1.35040283203125,-5.401611328125,-2.8228759765625,-0.5362548828125,0.4345703125,0.2724609375,11,0,204
2,24,1,80589,288,-0.25146484375,0.913818359375,-0.227783203125,4.08172607421875,-3.62396240234375,-0.1678466796875,-0.0703125,-0.3116455078125,0.0084228515625,11,0,219
2,24,3,80591,288,0.13140869140625,-0.9864501953125,-0.121826171875,1.35040283203125,-5.401611328125,-2.8228759765625,-0.5372314453125,0.4395751953125,0.2733154296875,11,0,80
2,24,1,80639,289,-0.25146484375,0.913818359375,-0.227783203125,4.08172607421875,-3.62396240234375,-0.1678466796875,-0.073486328125,-0.3109130859375,0.0098876953125,11,0,192
2,24,3,80645,289,0.14361572265625,-0.9822998046875,-0.117919921875,2.31170654296875,-7.28607177734375,-4.70733642578125,-0.5401611328125,0.4393310546875,0.26953125,11,0,15
2,24,3,80688,290,0.14166259765625,-0.99835205078125,-0.12188720703125,3.265380859375,-8.3465576171875,-5.43212890625,-0.5369873046875,0.431884765625,0.27197265625,11,0,139
2,24,1,80689,290,-0.24365234375,0.92474365234375,-0.2381591796875,5.37872314453125,-1.89208984375,-0.8392333984375,-0.0677490234375,-0.3104248046875,0.0081787109375,11,0,87
2,24,3,80745,291,0.14166259765625,-0.99835205078125,-0.12188720703125,3.265380859375,-8.3465576171875,-5.43212890625,-0.5391845703125,0.4329833984375,0.2718505859375,11,0,67
2,24,1,80746,291,-0.25567626953125,0.933837890625,-0.25018310546875,4.15802001953125,1.38092041015625,-1.5106201171875,-0.070556640625,-0.30859375,0.0166015625,11,0,168
2,24,3,80793,292,0.14678955078125,-0.9891357421875,-0.12249755859375,2.9144287109375,-6.6070556640625,-4.1961669921875,-0.540283203125,0.437744140625,0.2728271484375,11,0,142
2,24,1,80794,292,-0.2635498046875,0.92041015625,-0.26055908203125,2.471923828125,3.6163330078125,-3.082275390625,-0.070068359375,-0.3079833984375,0.0118408203125,11,0,74
2,24,3,80846,293,0.14678955078125,-0.9891357421875,-0.12249755859375,2.9144287109375,-6.6070556640625,-4.1961669921875,-0.5390625,0.4351806640625,0.274169921875,11,0,232
2,24,1,80848,293,-0.2635498046875,0.92041015625,-0.26055908203125,2.471923828125,3.6163330078125,-3.082275390625,-0.0704345703125,-0.307861328125,0.010986328125,11,0,132
2,24,1,80899,294,-0.2825927734375,0.90521240234375,-0.2626953125,2.0294189453125,2.37274169921875,-3.27301025390625,-0.0667724609375,-0.3062744140625,0.013671875,11,0,201
2,24,3,80900,294,0.1431884765625,-0.98565673828125,-0.1226806640625,2.15911865234375,-4.66156005859375,-2.99072265625,-0.541015625,0.435302734375,0.2689208984375,11,0,36
2,24,3,80950,295,0.13970947265625,-0.98809814453125,-0.12939453125,1.9073486328125,-5.01251220703125,-2.1820068359375,-0.538818359375,0.4320068359375,0.268798828125,11,0,114
2,24,1,80951,295,-0.27569580078125,0.91339111328125,-0.26519775390625,2.18963623046875,-3.11279296875,-1.22833251953125,-0.0672607421875,-0.3084716796875,0.01171875,11,0,76
2,24,3,81001,296,0.11602783203125,-1.0093994140625,-0.1434326171875,1.68609619140625,-4.75311279296875,-1.88446044921875,-0.5357666015625,0.43408203125,0.272705078125,11,0,104
2,24,1,81004,296,-0.27569580078125,0.91339111328125,-0.26519775390625,2.18963623046875,-3.11279296875,-1.22833251953125,-0.068115234375,-0.308837890625,0.017333984375,11,0,104
2,24,1,81055,297,-0.262451171875,0.9151611328125,-0.2593994140625,3.18145751953125,-8.3465576171875,0.152587890625,-0.070556640625,-0.3131103515625,0.0174560546875,11,0,165
2,24,3,81058,297,0.11602783203125,-1.0093994140625,-0.1434326171875,1.68609619140625,-4.75311279296875,-1.88446044921875,-0.5433349609375,0.435546875,0.2723388671875,11,0,224
2,24,1,81105,298,-0.262451171875,0.9151611328125,-0.2593994140625,3.18145751953125,-8.3465576171875,0.152587890625,-0.06494140625,-0.308349609375,0.0147705078125,11,0,165
2,24,3,81106,298,0.144775390625,-0.9798583984375,-0.12689208984375,1.922607421875,-2.0751953125,-3.0975341796875,-0.5400390625,0.43359375,0.26953125,11,0,166
2,24,1,81157,299,-0.2620849609375,0.91265869140625,-0.25390625,3.5858154296875,-6.12640380859375,-0.86212158203125,-0.0701904296875,-0.31201171875,0.0167236328125,11,0,255
2,24,3,81158,299,0.1566162109375,-0.97857666015625,-0.113525390625,2.81524658203125,-1.74713134765625,-3.936767578125,-0.5389404296875,0.435546875,0.266357421875,11,0,4
2,24,3,81211,300,0.1566162109375,-0.97857666015625,-0.113525390625,2.81524658203125,-1.74713134765625,-3.936767578125,-0.5394287109375,0.4310302734375,0.270751953125,11,0,51
2,24,1,81212,300,-0.251220703125,0.913330078125,-0.25225830078125,2.29644775390625,-2.90679931640625,-2.0751953125,-0.06982421875,-0.311767578125,0.0147705078125,11,0,116
2,24,1,81263,301,-0.27197265625,0.9136962890625,-0.25836181640625,1.44195556640625,-1.1749267578125,-2.166748046875,-0.06494140625,-0.3095703125,0.014892578125,11,0,144
2,24,3,81264,301,0.1461181640625,-0.9901123046875,-0.12286376953125,3.42559814453125,-3.68499755859375,-3.22723388671875,-0.5391845703125,0.431640625,0.2738037109375,11,0,215
2,24,3,81315,302,0.14886474609375,-0.9842529296875,-0.12896728515625,3.509521484375,-5.2032470703125,-3.0364990234375,-0.5391845703125,0.4327392578125,0.2713623046875,11,0,164
2,24,1,81316,302,-0.27197265625,0.9136962890625,-0.25836181640625,1.44195556640625,-1.1749267578125,-2.166748046875,-0.068603515625,-0.30517578125,0.013916015625,11,0,65
2,24,3,81366,303,0.14886474609375,-0.9842529296875,-0.12896728515625,3.509521484375,-5.2032470703125,-3.0364990234375,-0.5377197265625,0.4320068359375,0.2652587890625,11,0,21
2,24,1,81370,303,-0.26336669921875,0.90679931640625,-0.25579833984375,1.5869140625,-1.8157958984375,-1.48773193359375,-0.0654296875,-0.30859375,0.015625,11,0,71
2,24,3,81418,304,0.14556884765625,-0.99462890625,-0.1304931640625,3.36456298828125,-4.7607421875,-2.960205078125,-0.539794921875,0.432861328125,0.264404296875,11,0,55
2,24,1,81419,304,-0.26019287109375,0.9202880859375,-0.2523193359375,2.18963623046875,-2.47955322265625,-1.007080078125,-0.0643310546875,-0.3094482421875,0.0135498046875,11,0,171
2,24,1,81470,305,-0.26019287109375,0.9202880859375,-0.2523193359375,2.18963623046875,-2.47955322265625,-1.007080078125,-0.0675048828125,-0.3052978515625,0.015625,11,0,190
2,24,3,81471,305,0.14556884765625,-0.99462890625,-0.1304931640625,3.36456298828125,-4.7607421875,-2.960205078125,-0.54150390625,0.4322509765625,0.2747802734375,11,0,82
2,24,3,81527,306,0.1441650390625,-0.99322509765625,-0.1378173828125,3.082275390625,-4.4097900390625,-3.814697265625,-0.5423583984375,0.4334716796875,0.2750244140625,11,0,46
2,24,1,81528,306,-0.26910400390625,0.916015625,-0.2535400390625,3.143310546875,-2.7618408203125,-1.3580322265625,-0.069091796875,-0.3077392578125,0.0177001953125,11,0,177
2,24,1,81575,307,-0.261474609375,0.9095458984375,-0.24273681640625,3.63922119140625,-3.3416748046875,-1.30462646484375,-0.068115234375,-0.3052978515625,0.017578125,11,0,228
2,24,3,81576,307,0.16717529296875,-0.97454833984375,-0.11810302734375,3.22723388671875,-4.302978515625,-5.16510009765625,-0.54443359375,0.43359375,0.2684326171875,11,0,188
2,24,3,81632,308,0.16717529296875,-0.97454833984375,-0.11810302734375,3.22723388671875,-4.302978515625,-5.16510009765625,-0.5428466796875,0.43115234375,0.271484375,11,0,181
2,24,1,81633,308,-0.261474609375,0.9095458984375,-0.24273681640625,3.63922119140625,-3.3416748046875,-1.30462646484375,-0.0650634765625,-0.306640625,0.0185546875,11,0,159
2,24,3,81691,309,0.1549072265625,-0.98565673828125,-0.12158203125,2.83050537109375,-3.82232666015625,-3.05938720703125,-0.5408935546875,0.43408203125,0.266845703125,11,0,197
2,24,1,81692,309,-0.26373291015625,0.92633056640625,-0.25054931640625,3.6163330078125,-4.669189453125,-0.3204345703125,-0.0673828125,-0.3095703125,0.0164794921875,11,0,237
2,24,3,81735,310,0.1466064453125,-0.99163818359375,-0.12237548828125,2.09808349609375,-4.4403076171875,-1.70135498046875,-0.5433349609375,0.43505859375,0.2701416015625,11,0,92
2,24,1,81736,310,-0.25921630859375,0.91741943359375,-0.2542724609375,3.41796875,-5.68389892578125,0.00762939453125,-0.0670166015625,-0.304931640625,0.0191650390625,11,0,171
2,24,3,81738,310,0.1466064453125,-0.99163818359375,-0.12237548828125,2.09808349609375,-4.4403076171875,-1.70135498046875,-0.5433349609375,0.43505859375,0.2701416015625,11,0,203
2,24,1,81785,311,-0.25921630859375,0.91741943359375,-0.2542724609375,3.41796875,-5.68389892578125,0.00762939453125,-0.0657958984375,-0.309814453125,0.01611328125,11,0,157
2,24,3,81786,311,0.15240478515625,-0.98077392578125,-0.1248779296875,1.79290771484375,-4.17327880859375,-1.9683837890625,-0.5421142578125,0.433837890625,0.2744140625,11,0,241
2,24,3,81837,312,0.15240478515625,-0.98077392578125,-0.1248779296875,1.79290771484375,-4.17327880859375,-1.9683837890625,-0.5445556640625,0.430419921875,0.2684326171875,11,0,240
2,24,1,81838,312,-0.25506591796875,0.9146728515625,-0.25152587890625,3.6163330078125,-5.0048828125,-0.35858154296875,-0.067138671875,-0.307373046875,0.0179443359375,11,0,79
2,24,1,81890,313,-0.26959228515625,0.9117431640625,-0.2601318359375,3.36456298828125,-3.6773681640625,-0.98419189453125,-0.0692138671875,-0.30859375,0.01806640625,11,0,37
2,24,3,81891,313,0.13702392578125,-0.99188232421875,-0.132568359375,1.31988525390625,-4.2724609375,-1.0833740234375,-0.539306640625,0.4326171875,0.2708740234375,11,0,134
2,24,3,81941,314,0.14361572265625,-0.9847412109375,-0.1348876953125,1.556396484375,-5.5389404296875,-1.5869140625,-0.54296875,0.434326171875,0.271728515625,11,0,199
2,24,1,81942,314,-0.26959228515625,0.9117431640625,-0.2601318359375,3.36456298828125,-3.6773681640625,-0.98419189453125,-0.06787109375,-0.304931640625,0.0162353515625,11,0,185
2,24,3,81997,315,0.14361572265625,-0.9847412109375,-0.1348876953125,1.556396484375,-5.5389404296875,-1.5869140625,-0.5426025390625,0.4339599609375,0.2705078125,11,0,178
2,24,1,81998,315,-0.26544189453125,0.9051513671875,-0.2535400390625,3.89862060546875,-2.8228759765625,-1.52587890625,-0.0684814453125,-0.3035888671875,0.019775390625,11,0,255
2,24,3,82046,316,0.143310546875,-0.98931884765625,-0.138427734375,2.09808349609375,-5.34820556640625,-2.44140625,-0.541748046875,0.43212890625,0.2705078125,11,0,202
2,24,1,82048,316,-0.268798828125,0.9127197265625,-0.26922607421875,4.85992431640625,-2.08282470703125,-2.0294189453125,-0.0672607421875,-0.304443359375,0.019287109375,11,0,42
2,24,1,82098,317,-0.268798828125,0.9127197265625,-0.26922607421875,4.85992431640625,-2.08282470703125,-2.0294189453125,-0.0679931640625,-0.3004150390625,0.0267333984375,11,0,178
2,24,3,82099,317,0.143310546875,-0.98931884765625,-0.138427734375,2.09808349609375,-5.34820556640625,-2.44140625,-0.5428466796875,0.4327392578125,0.2742919921875,11,0,77
2,24,3,82152,318,0.142822265625,-0.98956298828125,-0.1341552734375,2.5482177734375,-4.98199462890625,-3.0670166015625,-0.5419921875,0.432373046875,0.2744140625,11,0,127
2,24,1,82157,318,-0.27099609375,0.914794921875,-0.29010009765625,5.1422119140625,-0.99945068359375,-2.31170654296875,-0.06689453125,-0.3046875,0.0234375,11,0,156
2,24,3,82205,319,0.1474609375,-0.98486328125,-0.13775634765625,3.021240234375,-4.84466552734375,-3.13568115234375,-0.5374755859375,0.4359130859375,0.2723388671875,11,0,191
2,24,1,82214,319,-0.279296875,0.90643310546875,-0.260498046875,4.76837158203125,0.213623046875,-2.32696533203125,-0.0621337890625,-0.30419921875,0.02001953125,11,0,52
2,24,3,82254,320,0.1474609375,-0.98486328125,-0.13775634765625,3.021240234375,-4.84466552734375,-3.13568115234375,-0.5369873046875,0.4327392578125,0.2681884765625,11,0,66
2,24,1,82256,320,-0.279296875,0.90643310546875,-0.260498046875,4.76837158203125,0.213623046875,-2.32696533203125,-0.067626953125,-0.3028564453125,0.0223388671875,11,0,147
2,24,3,82308,321,0.15234375,-0.9837646484375,-0.133056640625,3.44085693359375,-5.157470703125,-2.8076171875,-0.536865234375,0.429931640625,0.2713623046875,11,0,135
2,24,1,82309,321,-0.279296875,0.91143798828125,-0.27166748046875,3.91387939453125,-1.70135498046875,-2.2430419921875,-0.0643310546875,-0.3001708984375,0.022705078125,11,0,192
2,24,1,82358,322,-0.27996826171875,0.9071044921875,-0.2867431640625,3.18145751953125,-3.44085693359375,-1.8310546875,-0.06494140625,-0.30517578125,0.024658203125,11,0,48
2,24,3,82361,322,0.14453125,-0.99005126953125,-0.1322021484375,3.63922119140625,-3.83758544921875,-1.495361328125,-0.538818359375,0.429443359375,0.2728271484375,11,0,250
2,24,1,82410,323,-0.27996826171875,0.9071044921875,-0.2867431640625,3.18145751953125,-3.44085693359375,-1.8310546875,-0.0670166015625,-0.3011474609375,0.025634765625,11,0,115
2,24,3,82411,323,0.14453125,-0.99005126953125,-0.13275146484375,3.63922119140625,-3.83758544921875,-1.495361328125,-0.535400390625,0.4271240234375,0.2705078125,11,0,207
2,24,3,82469,324,0.14288330078125,-0.9857177734375,-0.13275146484375,3.387451171875,-3.51715087890625,-1.77001953125,-0.5372314453125,0.4287109375,0.265380859375,11,0,6
2,24,1,82471,324,-0.274169921875,0.905029296875,-0.27734375,3.5552978515625,-5.0201416015625,-1.434326171875,-0.0623779296875,-0.300537109375,0.022216796875,11,0,121
2,24,3,82515,325,0.1343994140625,-0.99151611328125,-0.13299560546875,3.33404541015625,-3.82232666015625,-1.9073486328125,-0.538330078125,0.432373046875,0.273193359375,11,0,44
2,24,1,82516,325,-0.271240234375,0.91082763671875,-0.28082275390625,2.197265625,-4.78363037109375,-0.885009765625,-0.0638427734375,-0.2998046875,0.0198974609375,11,0,68
2,24,3,82518,325,0.1343994140625,-0.99151611328125,-0.13299560546875,3.33404541015625,-3.82232666015625,-1.9073486328125,-0.538330078125,0.432373046875,0.273193359375,11,0,112
2,24,1,82567,326,-0.271240234375,0.91082763671875,-0.28082275390625,2.197265625,-4.78363037109375,-0.885009765625,-0.063232421875,-0.306396484375,0.0174560546875,11,0,154
2,24,3,82568,326,0.14532470703125,-0.98895263671875,-0.1278076171875,3.01361083984375,-4.0435791015625,-2.9449462890625,-0.541748046875,0.4320068359375,0.2734375,11,0,75
2,24,1,82622,327,-0.27606201171875,0.90399169921875,-0.275634765625,1.9073486328125,-5.31005859375,-0.2288818359375,-0.0625,-0.3062744140625,0.0224609375,11,0,0
2,24,3,82623,327,0.14532470703125,-0.98895263671875,-0.1278076171875,3.01361083984375,-4.0435791015625,-2.9449462890625,-0.5411376953125,0.431396484375,0.27197265625,11,0,159
2,24,3,82672,328,0.149169921875,-0.985595703125,-0.1326904296875,2.70843505859375,-4.669189453125,-3.7384033203125,-0.5421142578125,0.43310546875,0.2684326171875,11,0,248
2,24,1,82675,328,-0.275390625,0.90655517578125,-0.26678466796875,2.6397705078125,-4.69970703125,-0.14495849609375,-0.0670166015625,-0.3028564453125,0.0235595703125,11,0,6
2,24,3,82729,329,0.14508056640625,-0.9871826171875,-0.13214111328125,3.0670166015625,-4.486083984375,-3.27301025390625,-0.5390625,0.43359375,0.2711181640625,11,0,78
2,24,1,82729,329,-0.275390625,0.90655517578125,-0.26678466796875,2.6397705078125,-4.69970703125,-0.14495849609375,-0.06494140625,-0.302490234375,0.028564453125,11,0,209
2,24,3,82780,330,0.14508056640625,-0.9871826171875,-0.13214111328125,3.0670166015625,-4.486083984375,-3.27301025390625,-0.5394287109375,0.431396484375,0.2716064453125,11,0,201
2,24,1,82784,330,-0.277587890625,0.9013671875,-0.2705078125,2.9754638671875,-4.41741943359375,-0.30517578125,-0.0693359375,-0.30078125,0.024658203125,11,0,42
2,24,3,82830,331,0.15008544921875,-0.986572265625,-0.12945556640625,3.448486328125,-4.21142578125,-3.1890869140625,-0.5394287109375,0.433837890625,0.27001953125,11,0,94
2,24,1,82832,331,-0.27178955078125,0.90997314453125,-0.27093505859375,3.0975341796875,-4.425048828125,-0.17547607421875,-0.064208984375,-0.3048095703125,0.0255126953125,11,0,73
2,24,3,82839,331,0.15008544921875,-0.986572265625,-0.12945556640625,3.448486328125,-4.21142578125,-3.1890869140625,-0.5394287109375,0.433837890625,0.27001953125,11,0,190
2,24,3,82882,332,0.15008544921875,-0.986572265625,-0.12945556640625,3.448486328125,-4.21142578125,-3.1890869140625,-0.5421142578125,0.433349609375,0.272705078125,11,0,175
2,24,1,82883,332,-0.27178955078125,0.90997314453125,-0.27093505859375,3.0975341796875,-4.425048828125,-0.17547607421875,-0.0650634765625,-0.302978515625,0.0189208984375,11,0,232
2,24,1,82935,333,-0.26922607421875,0.91253662109375,-0.2681884765625,3.10516357421875,-4.82177734375,-0.2593994140625,-0.06787109375,-0.30517578125,0.0235595703125,11,0,50
2,24,3,82942,333,0.1484375,-0.98590087890625,-0.12872314453125,3.5552978515625,-4.24957275390625,-2.87628173828125,-0.5400390625,0.43359375,0.273681640625,11,0,227
2,24,1,82986,334,-0.27313232421875,0.90478515625,-0.26873779296875,3.33404541015625,-4.94384765625,-0.7781982421875,-0.06298828125,-0.3023681640625,0.0216064453125,11,0,49
2,24,3,82987,334,0.14776611328125,-0.98626708984375,-0.12957763671875,3.5858154296875,-4.1046142578125,-2.72369384765625,-0.541748046875,0.4349365234375,0.2720947265625,11,0,74
2,24,1,83042,335,-0.27313232421875,0.90478515625,-0.26873779296875,3.33404541015625,-4.94384765625,-0.7781982421875,-0.068359375,-0.303955078125,0.024658203125,11,0,135
2,24,3,83043,335,0.14776611328125,-0.98626708984375,-0.12957763671875,3.5858154296875,-4.1046142578125,-2.72369384765625,-0.5394287109375,0.43359375,0.2720947265625,11,0,151
2,24,3,83091,336,0.1484375,-0.9871826171875,-0.12640380859375,3.47137451171875,-4.0740966796875,-2.70843505859375,-0.5357666015625,0.4342041015625,0.27099609375,11,0,22
2,24,1,83095,336,-0.26812744140625,0.90740966796875,-0.26611328125,3.48663330078125,-4.8675537109375,-0.79345703125,-0.067138671875,-0.301513671875,0.0201416015625,11,0,240
2,24,1,83143,337,-0.2724609375,0.91339111328125,-0.27239990234375,3.8909912109375,-4.547119140625,-0.69427490234375,-0.0667724609375,-0.305419921875,0.017822265625,11,0,118
2,24,3,83144,337,0.14776611328125,-0.9901123046875,-0.12908935546875,3.31878662109375,-4.20379638671875,-2.9296875,-0.5433349609375,0.4351806640625,0.26611328125,11,0,74
2,24,3,83209,338,0.156982421875,-0.98223876953125,-0.12255859375,3.2196044921875,-4.09698486328125,-3.44085693359375,-0.54345703125,0.43115234375,0.271728515625,11,0,235
2,24,1,83214,338,-0.27435302734375,0.90191650390625,-0.27099609375,4.1961669921875,-4.28009033203125,-0.51116943359375,-0.064208984375,-0.3017578125,0.0235595703125,11,0,63
2,24,3,83249,339,0.156982421875,-0.98223876953125,-0.12255859375,3.2196044921875,-4.09698486328125,-3.44085693359375,-0.5384521484375,0.4324951171875,0.266845703125,11,0,97
2,24,1,83250,339,-0.27435302734375,0.90191650390625,-0.27099609375,4.1961669921875,-4.28009033203125,-0.51116943359375,-0.0662841796875,-0.3023681640625,0.021484375,11,0,146
2,24,3,83305,340,0.151611328125,-0.98724365234375,-0.12664794921875,2.98309326171875,-4.05120849609375,-2.777099609375,-0.5428466796875,0.43408203125,0.265869140625,11,0,163
2,24,1,83307,340,-0.2701416015625,0.90826416015625,-0.26947021484375,4.12750244140625,-4.94384765625,-0.42724609375,-0.0648193359375,-0.3028564453125,0.0206298828125,11,0,72
2,24,1,83352,341,-0.2701416015625,0.90826416015625,-0.26947021484375,4.12750244140625,-4.94384765625,-0.42724609375,-0.0692138671875,-0.3037109375,0.022216796875,11,0,133
2,24,3,83353,341,0.151611328125,-0.98724365234375,-0.12664794921875,2.98309326171875,-4.05120849609375,-2.777099609375,-0.5428466796875,0.4298095703125,0.271484375,11,0,220
2,24,1,83408,342,-0.27520751953125,0.90374755859375,-0.2725830078125,4.1961669921875,-5.18035888671875,-0.274658203125,-0.065185546875,-0.304443359375,0.0220947265625,11,0,41
2,24,3,83409,342,0.15118408203125,-0.985107421875,-0.1270751953125,2.84576416015625,-4.0283203125,-2.25067138671875,-0.5440673828125,0.4310302734375,0.2723388671875,11,0,231
2,24,1,83463,343,-0.273681640625,0.90936279296875,-0.282470703125,4.20379638671875,-5.3863525390625,0.3814697265625,-0.0684814453125,-0.3056640625,0.0189208984375,11,0,136
2,24,3,83466,343,0.15118408203125,-0.989501953125,-0.127197265625,2.72369384765625,-4.119873046875,-2.25067138671875,-0.5439453125,0.43310546875,0.2757568359375,11,0,234
2,24,3,83509,344,0.15118408203125,-0.989501953125,-0.127197265625,2.72369384765625,-4.119873046875,-2.25067138671875,-0.541748046875,0.43115234375,0.2720947265625,11,0,191
2,24,1,83512,344,-0.273681640625,0.90936279296875,-0.282470703125,4.20379638671875,-5.3863525390625,0.3814697265625,-0.0648193359375,-0.30419921875,0.0133056640625,11,0,26
2,24,3,83562,345,0.15087890625,-0.98956298828125,-0.12689208984375,2.5634765625,-4.2572021484375,-2.32696533203125,-0.5419921875,0.4320068359375,0.2725830078125,11,0,214
2,24,1,83569,345,-0.2745361328125,0.91522216796875,-0.28271484375,3.44085693359375,-6.00433349609375,0.9307861328125,-0.0628662109375,-0.3040771484375,0.019287109375,11,0,57
2,24,3,83614,346,0.14947509765625,-0.9842529296875,-0.1285400390625,2.55584716796875,-4.5166015625,-2.11334228515625,-0.5438232421875,0.4326171875,0.2724609375,11,0,51
2,24,1,83618,346,-0.26873779296875,0.8988037109375,-0.2655029296875,3.36456298828125,-7.2174072265625,0.79345703125,-0.0662841796875,-0.30859375,0.01513671875,11,0,92
2,24,1,83667,347,-0.28411865234375,0.90478515625,-0.27130126953125,4.67681884765625,-8.148193359375,0.518798828125,-0.068603515625,-0.308837890625,0.014892578125,11,0,17
2,24,3,83668,347,0.14947509765625,-0.9842529296875,-0.1285400390625,2.55584716796875,-4.5166015625,-2.11334228515625,-0.5426025390625,0.432861328125,0.2720947265625,11,0,172
2,24,1,83718,348,-0.28411865234375,0.90478515625,-0.27130126953125,4.67681884765625,-8.148193359375,0.518798828125,-0.067138671875,-0.3096923828125,0.0147705078125,11,0,233
2,24,3,83719,348,0.14862060546875,-0.98638916015625,-0.12823486328125,2.63214111328125,-4.99725341796875,-1.7547607421875,-0.544189453125,0.4287109375,0.2711181640625,11,0,126
2,24,3,83773,349,0.1439208984375,-0.98919677734375,-0.13140869140625,2.87628173828125,-4.82940673828125,-1.4190673828125,-0.5435791015625,0.4315185546875,0.2755126953125,11,0,34
2,24,1,83779,349,-0.29888916015625,0.9163818359375,-0.2950439453125,4.49371337890625,-9.3536376953125,1.44195556640625,-0.068115234375,-0.30712890625,0.007568359375,11,0,13
2,24,3,83825,350,0.14361572265625,-0.9886474609375,-0.12640380859375,2.87628173828125,-4.82940673828125,-0.54931640625,-0.5445556640625,0.433349609375,0.2750244140625,11,0,219
2,24,1,83826,350,-0.29888916015625,0.9163818359375,-0.2950439453125,4.49371337890625,-9.3536376953125,1.44195556640625,-0.0693359375,-0.3099365234375,0.0028076171875,11,0,75
2,24,1,83875,351,-0.258056640625,0.9117431640625,-0.27874755859375,1.48773193359375,-12.35198974609375,3.7841796875,-0.0721435546875,-0.308837890625,0.003173828125,11,0,81
2,24,3,83876,351,0.14361572265625,-0.9886474609375,-0.12640380859375,2.8533935546875,-3.7384033203125,-0.54931640625,-0.53759765625,0.4351806640625,0.271240234375,11,0,32
2,24,3,83927,352,0.129150390625,-0.9896240234375,-0.128173828125,2.4261474609375,-4.0283203125,0.28228759765625,-0.53857421875,0.433837890625,0.275634765625,11,0,43
2,24,1,83928,352,-0.2296142578125,0.92694091796875,-0.24945068359375,0.1373291015625,-14.18304443359375,4.31060791015625,-0.0706787109375,-0.30908203125,0.00244140625,11,0,43
2,24,1,83980,353,-0.2296142578125,0.92694091796875,-0.24945068359375,0.1373291015625,-14.18304443359375,4.31060791015625,-0.06884765625,-0.3125,0.0040283203125,11,0,237
2,24,3,83981,353,0.12579345703125,-0.9854736328125,-0.13507080078125,2.03704833984375,-4.43267822265625,0.20599365234375,-0.5372314453125,0.4324951171875,0.2763671875,11,0,190
2,24,3,84033,354,0.12579345703125,-0.9854736328125,-0.13507080078125,2.03704833984375,-4.43267822265625,0.20599365234375,-0.5313720703125,0.4327392578125,0.276611328125,11,0,127
2,24,1,84038,354,-0.24139404296875,0.90985107421875,-0.23638916015625,0.5340576171875,-11.322021484375,2.6702880859375,-0.074462890625,-0.3138427734375,0.00634765625,11,0,179
2,24,3,84086,355,0.1365966796875,-0.98760986328125,-0.1302490234375,2.31170654296875,-6.2713623046875,-1.708984375,-0.5377197265625,0.4345703125,0.2752685546875,11,0,22
2,24,1,84090,355,-0.2576904296875,0.90167236328125,-0.2359619140625,1.0223388671875,-5.706787109375,0.55694580078125,-0.0689697265625,-0.3145751953125,0.0067138671875,11,0,193
2,24,3,84137,356,0.1365966796875,-0.98760986328125,-0.1302490234375,2.31170654296875,-6.2713623046875,-1.708984375,-0.5364990234375,0.4327392578125,0.268310546875,11,0,92
2,24,1,84139,356,-0.25494384765625,0.95513916015625,-0.2567138671875,0.54168701171875,-0.91552734375,-0.00762939453125,-0.0711669921875,-0.314208984375,0.0028076171875,11,0,70
2,24,1,84192,357,-0.25494384765625,0.95513916015625,-0.2567138671875,0.54168701171875,-0.91552734375,-0.00762939453125,-0.0736083984375,-0.317626953125,0.0035400390625,11,0,200
2,24,3,84193,357,0.1278076171875,-0.9910888671875,-0.13482666015625,3.77655029296875,-5.59234619140625,-2.44140625,-0.5369873046875,0.43505859375,0.271484375,11,0,253
2,24,3,84243,358,0.14434814453125,-0.98260498046875,-0.13299560546875,2.9449462890625,-4.67681884765625,-1.983642578125,-0.5357666015625,0.431640625,0.2669677734375,11,0,88
2,24,1,84244,358,-0.2742919921875,0.88116455078125,-0.2938232421875,-0.762939453125,-1.9683837890625,1.9989013671875,-0.0716552734375,-0.318115234375,-0.0003662109375,11,0,112
2,24,1,84295,359,-0.2294921875,0.929443359375,-0.1953125,5.72967529296875,-12.8936767578125,-0.37384033203125,-0.0748291015625,-0.3140869140625,0.004638671875,11,0,124
2,24,3,84296,359,0.14434814453125,-0.98260498046875,-0.13299560546875,2.9449462890625,-4.67681884765625,-1.983642578125,-0.531494140625,0.432373046875,0.2724609375,11,0,243
2,24,3,84348,360,0.1158447265625,-0.99176025390625,-0.1385498046875,0.762939453125,-3.814697265625,-0.41961669921875,-0.5341796875,0.42919921875,0.2764892578125,11,0,10
2,24,1,84349,360,-0.2294921875,0.929443359375,-0.1953125,5.72967529296875,-12.8936767578125,-0.37384033203125,-0.07275390625,-0.314208984375,0.005126953125,11,0,84
2,24,1,84399,361,-0.2774658203125,0.91412353515625,-0.269775390625,6.378173828125,-8.53729248046875,-1.74713134765625,-0.0701904296875,-0.317138671875,-0.00048828125,11,0,149
